setup_js.started,setup_js.stopped,participant,date,expName,psychopyVersion,OS,frameRate,Instructions1.started,Instructions1.stopped,key_resp_2.keys,key_resp_2.rt,key_resp_2.duration,Instructions2.started,Instructions2.stopped,key_resp_3.keys,key_resp_3.rt,key_resp_3.duration,Instructions3.started,Instructions3.stopped,key_resp_4.keys,key_resp_4.rt,key_resp_4.duration,Instructions4.started,Instructions4.stopped,key_resp_5.keys,key_resp_5.rt,key_resp_5.duration,Instructions5.started,Instructions5.stopped,key_resp_10.keys,key_resp_10.rt,key_resp_10.duration,Instructions6b.started,Instructions6b.stopped,key_resp_16.keys,key_resp_16.rt,key_resp_16.duration,Instructions6.started,Instructions6.stopped,key_resp_13.keys,key_resp_13.rt,key_resp_13.duration,memoranda.started,memoranda.stopped,isi1.started,isi1.stopped,probe.started,probe.stopped,mouse.x,mouse.y,mouse.leftButton,mouse.midButton,mouse.rightButton,mouse.time,mouse.clicked_name,resp_correct,taskPhase,correct_ans.started,correct_ans.stopped,ITI.started,ITI.stopped,prac_trials.thisRepN,prac_trials.thisTrialN,prac_trials.thisN,prac_trials.thisIndex,prac_trials.ran,attend,reliability,validity,test_item,reliability_time,cue_time,delay_1_time,delay_2_time,ping_time,delay_3_time,probe_time,noise_mask_time,iti_dur,pilot_info,ping_im_flash1,ping_im_flash2,ping_im_flash3,ping_im_flash4,ping_im_flash5,stim_side,img1,img2,ping_img,left_img,right_img,right_cue_length,left_cue_length,right_cue_offset,left_cue_offset,attend_direction,rec_length,distractor_0,distractor_0_type,distractor_1,distractor_1_type,distractor_2,distractor_2_type,distractor_3,distractor_3_type,mem_x,mem_y,dismem_x,dismem_y,dis0_x,dis0_y,dis1_x,dis1_y,dis2_x,dis2_y,dis3_x,dis3_y,mem_stim,distractor_stim,probe_direction,cue_img,repeat_code.started,repeat_code.stopped,key_resp_14.keys,repeat_prac.thisRepN,repeat_prac.thisTrialN,repeat_prac.thisN,repeat_prac.thisIndex,repeat_prac.ran,Instructions7.started,Instructions7.stopped,key_resp_15.keys,key_resp_15.rt,key_resp_15.duration,Instructions8.started,Instructions8.stopped,key_resp_6.keys,key_resp_6.rt,key_resp_6.duration,key_resp_7.keys,key_resp_7.rt,key_resp_7.duration,Instructions9.started,Instructions9.stopped,key_resp_8.keys,key_resp_8.rt,key_resp_8.duration,Instructions10.started,Instructions10.stopped,key_resp_9.keys,key_resp_9.rt,key_resp_9.duration,intro_txt.started,intro_txt.stopped,key_resp_11.keys,key_resp_11.rt,key_resp_11.duration,initial_wait.started,initial_wait.stopped,reliability_cue.started,reliability_cue.stopped,isi2.started,isi2.stopped,ping.started,ping.stopped,noise_mask.started,noise_mask.stopped,isi3.started,isi3.stopped,block_break.started,block_break.stopped,key_resp.keys,loop_trials.thisRepN,loop_trials.thisTrialN,loop_trials.thisN,loop_trials.thisIndex,loop_trials.ran,repeat_practice_code.started,repeat_practice_code.stopped,key_resp_12.keys,repeat_practice.thisRepN,repeat_practice.thisTrialN,repeat_practice.thisN,repeat_practice.thisIndex,repeat_practice.ran,demo_prac_task.thisRepN,demo_prac_task.thisTrialN,demo_prac_task.thisN,demo_prac_task.thisIndex,demo_prac_task.ran,condsFile,introTXT,trials.thisRepN,trials.thisTrialN,trials.thisN,trials.thisIndex,trials.ran,trials.order,trials_3.thisRepN,trials_3.thisTrialN,trials_3.thisN,trials_3.thisIndex,trials_3.ran,trials_3.order,taskPhases,conditions_choice,demo_prac_task.order,repeat_practice.order,loop_trials.order
0.0005,0.0008,124927,2024-10-18_24h24.24.353,WM_Deepgen,2023.2.1,MacIntel,128.2051282,,,,,,,,,,,,,,,,,,,,,,,,,,,,,,,,,,,,,,,,,,,,,,,,,,,,,,,,,,,,,,,,,,,,,,,,,,,,,,,,,,,,,,,,,,,,,,,,,,,,,,,,,,,,,,,,,,,,,,,,,,,,,,,,,,,,,,,,,,,,,,,,,,,,,,,,,,,,,,,,,,,,,,,,,,,,,,,,,,,,,,,,,,,,,,,,,,,,,,,,,,
,,124927,2024-10-18_24h24.24.353,WM_Deepgen,2023.2.1,MacIntel,128.2051282,0.0008,2.701,y,1.6821,,,,,,,,,,,,,,,,,,,,,,,,,,,,,,,,,,,,,,,,,,,,,,,,,,,,,,,,,,,,,,,,,,,,,,,,,,,,,,,,,,,,,,,,,,,,,,,,,,,,,,,,,,,,,,,,,,,,,,,,,,,,,,,,,,,,,,,,,,,,,,,,,,,,,,,,,,,,,,,,,,,,,,,,,,,,,,,,,,,,,,,,,,,,,,,,,,,,,,
,,124927,2024-10-18_24h24.24.353,WM_Deepgen,2023.2.1,MacIntel,128.2051282,,,,,,2.7029,7.7886,y,4.0709,,7.7888,10.5844,y,1.7805,,10.5844,31.518,y,19.9171,,31.5181,38.4432,y,5.9028,,38.4433,41.6016,y,2.1498,,41.6126,50.3684,y,7.742,,50.3836,52.3849,52.3851,52.884,52.8842,57.8856,[-0.031510416666666666],[-0.416745205026455],[1],[0],[0],[2.629300000071453],"[""memoranda_stim""]",1,intro,57.8861,58.8837,58.8838,59.8881,0,0,0,1,1,img1,0.666666667,invalid,img2,0,2,0.5,0.25,0,0,5,0,1,flashing_distractor,0.2,0.2,0.2,0.2,0.2,1,./stimuli/demo_stims/fire_alarm_01b.jpg,./stimuli/demo_stims/gorilla_02s.jpg,./stimuli/demo_stims/barbell_08s.jpg,./stimuli/demo_stims/fire_alarm_01b.jpg,./stimuli/demo_stims/gorilla_02s.jpg,0.06875,0.09625,0.034375,-0.048125,left,0.33,./stimuli/demo_stims/fire_alarm_20s.jpg,im1_distractor,./stimuli/demo_stims/fire_alarm_07s.jpg,im1_distractor,./stimuli/demo_stims/gorilla_21s.jpg,im2_distractor,./stimuli/demo_stims/gorilla_12s.jpg,im2_distractor,0,-0.35,0.37,-0.25,0,0.35,-0.37,-0.25,0.37,0.25,-0.37,0.25,./stimuli/demo_stims/gorilla_02s.jpg,./stimuli/demo_stims/fire_alarm_01b.jpg,right,./stimuli/cue_right.png,,,,,,,,,,,,,,,,,,,,,,,,,,,,,,,,,,,,,,,,,,,,,,,,,,,,,,,,,,,,,,,,,,,,,,,,,,,,,,,,,,,,,,,,
,,124927,2024-10-18_24h24.24.353,WM_Deepgen,2023.2.1,MacIntel,128.2051282,,,,,,,,,,,,,,,,,,,,,,,,,,,,,,,,,,,,59.8892,61.8838,61.8839,62.3829,62.383,67.3878,[0.38491650132275135],[0.17920386904761904],[1],[0],[0],[2.4224999999996726],"[""memoranda_stim""]",1,intro,67.3879,68.384,68.384,69.3837,0,1,1,0,1,img1,0.666666667,valid,img1,0,2,0.5,0.25,0,0,5,0,1,flashing_distractor,0.2,0.2,0.2,0.2,0.2,1,./stimuli/demo_stims/tricycle_12s.jpg,./stimuli/demo_stims/scarf_07s.jpg,./stimuli/demo_stims/hearse_02s.jpg,./stimuli/demo_stims/tricycle_12s.jpg,./stimuli/demo_stims/scarf_07s.jpg,0.06875,0.09625,0.034375,-0.048125,left,0.33,./stimuli/demo_stims/tricycle_07s.jpg,im1_distractor,./stimuli/demo_stims/tricycle_11s.jpg,im1_distractor,./stimuli/demo_stims/scarf_06s.jpg,im2_distractor,./stimuli/demo_stims/scarf_04s.jpg,im2_distractor,0.37,0.25,0,-0.35,0.37,-0.25,-0.37,-0.25,0,0.35,-0.37,0.25,./stimuli/demo_stims/tricycle_12s.jpg,./stimuli/demo_stims/scarf_07s.jpg,left,./stimuli/cue_left.png,,,,,,,,,,,,,,,,,,,,,,,,,,,,,,,,,,,,,,,,,,,,,,,,,,,,,,,,,,,,,,,,,,,,,,,,,,,,,,,,,,,,,,,,
,,124927,2024-10-18_24h24.24.353,WM_Deepgen,2023.2.1,MacIntel,128.2051282,,,,,,,,,,,,,,,,,,,,,,,,,,,,,,,,,,,,69.3845,71.3848,71.3849,71.8827,71.8828,76.8846,[0.042257771164021164],[-0.33903356481481484],[1],[0],[0],[2.8252999999522217],"[""memoranda_stim""]",1,intro,76.8849,77.8872,77.8873,78.8836,0,2,2,2,1,img2,0.833333333,valid,img2,0,2,0.5,0.25,0,0,5,0,1,flashing_distractor,0.2,0.2,0.2,0.2,0.2,-1,./stimuli/demo_stims/toilet_paper_10s.jpg,./stimuli/demo_stims/hatchet_01b.jpg,./stimuli/demo_stims/marshmallow_04s.jpg,./stimuli/demo_stims/hatchet_01b.jpg,./stimuli/demo_stims/toilet_paper_10s.jpg,0.01375,0.15125,0.006875,-0.075625,left,0.33,./stimuli/demo_stims/toilet_paper_18s.jpg,im1_distractor,./stimuli/demo_stims/toilet_paper_03s.jpg,im1_distractor,./stimuli/demo_stims/hatchet_08s.jpg,im2_distractor,./stimuli/demo_stims/hatchet_20s.jpg,im2_distractor,0,-0.35,0.37,-0.25,0.37,0.25,-0.37,0.25,-0.37,-0.25,0,0.35,./stimuli/demo_stims/hatchet_01b.jpg,./stimuli/demo_stims/toilet_paper_10s.jpg,left,./stimuli/cue_left.png,,,,,,,,,,,,,,,,,,,,,,,,,,,,,,,,,,,,,,,,,,,,,,,,,,,,,,,,,,,,,,,,,,,,,,,,,,,,,,,,,,,,,,,,
,,124927,2024-10-18_24h24.24.353,WM_Deepgen,2023.2.1,MacIntel,128.2051282,,,,,,,,,,,,,,,,,,,,,,,,,,,,,,,,,,,,78.8842,80.8837,80.8838,81.3839,81.384,86.3866,[0.03454861111111111],[-0.3728670634920635],[1],[0],[0],[3.4027000000469343],"[""memoranda_stim""]",1,intro,86.3875,87.3838,87.384,88.3845,0,3,3,3,1,img1,0.666666667,valid,img1,0,2,0.5,0.25,0,0,5,0,1,flashing_distractor,0.2,0.2,0.2,0.2,0.2,-1,./stimuli/demo_stims/gavel_03s.jpg,./stimuli/demo_stims/cat_05s.jpg,./stimuli/demo_stims/scraper_12s.jpg,./stimuli/demo_stims/cat_05s.jpg,./stimuli/demo_stims/gavel_03s.jpg,0.09625,0.06875,0.048125,-0.034375,right,0.33,./stimuli/demo_stims/gavel_08s.jpg,im1_distractor,./stimuli/demo_stims/gavel_07s.jpg,im1_distractor,./stimuli/demo_stims/cat_08s.jpg,im2_distractor,./stimuli/demo_stims/cat_12s.jpg,im2_distractor,0,-0.35,0,0.35,0.37,0.25,0.37,-0.25,-0.37,-0.25,-0.37,0.25,./stimuli/demo_stims/gavel_03s.jpg,./stimuli/demo_stims/cat_05s.jpg,right,./stimuli/cue_right.png,,,,,,,,,,,,,,,,,,,,,,,,,,,,,,,,,,,,,,,,,,,,,,,,,,,,,,,,,,,,,,,,,,,,,,,,,,,,,,,,,,,,,,,,
,,124927,2024-10-18_24h24.24.353,WM_Deepgen,2023.2.1,MacIntel,128.2051282,,,,,,,,,,,,,,,,,,,,,,,,,,,,,,,,,,,,88.3848,90.3838,90.3838,90.8863,90.8864,95.8837,[-0.3240203373015873],[0.21382275132275133],[1],[0],[0],[1.752899999976762],"[""memoranda_stim""]",1,intro,95.8838,96.8837,96.8837,97.884,0,4,4,4,1,img1,0.666666667,valid,img1,0,2,0.5,0.25,0,0,5,0,1,flashing_distractor,0.2,0.2,0.2,0.2,0.2,1,./stimuli/demo_stims/bathmat_03s.jpg,./stimuli/demo_stims/paper_07s.jpg,./stimuli/demo_stims/pocket_08s.jpg,./stimuli/demo_stims/bathmat_03s.jpg,./stimuli/demo_stims/paper_07s.jpg,0.06875,0.09625,0.034375,-0.048125,left,0.33,./stimuli/demo_stims/bathmat_08s.jpg,im1_distractor,./stimuli/demo_stims/bathmat_04s.jpg,im1_distractor,./stimuli/demo_stims/paper_12s.jpg,im2_distractor,./stimuli/demo_stims/paper_08s.jpg,im2_distractor,-0.37,0.25,0.37,-0.25,0,-0.35,0,0.35,0.37,0.25,-0.37,-0.25,./stimuli/demo_stims/bathmat_03s.jpg,./stimuli/demo_stims/paper_07s.jpg,left,./stimuli/cue_left.png,,,,,,,,,,,,,,,,,,,,,,,,,,,,,,,,,,,,,,,,,,,,,,,,,,,,,,,,,,,,,,,,,,,,,,,,,,,,,,,,,,,,,,,,
,,124927,2024-10-18_24h24.24.353,WM_Deepgen,2023.2.1,MacIntel,128.2051282,,,,,,,,,,,,,,,,,,,,,,,,,,,,,,,,,,,,,,,,,,,,,,,,,,,,,,,,,,,,,,,,,,,,,,,,,,,,,,,,,,,,,,,,,,,,,,,,,,,,,,,,,,,,,,,,,,,97.8858,97.8892,,0,0,0,0,1,,,,,,,,,,,,,,,,,,,,,,,,,,,,,,,,,,,,,,,,,,,,,,,,,,,,,,,,,,,,,,,,,,,,,,,,,,,,,,,,
,,124927,2024-10-18_24h24.24.353,WM_Deepgen,2023.2.1,MacIntel,128.2051282,,,,,,,,,,,,,,,,,,,,,,,,,,,,,,,,,,,,127.9488,129.9468,129.9469,130.4422,133.508,136.5086,[0.04486193783068783],[-0.2788897156084656],[1],[0],[0],[2.166199999928722],"[""memoranda_stim""]",1,demo,,,136.5101,137.5086,,,,,,img2,0.666666667,valid,img2,2,2,0.5,0.25,0,0,3,0,1,flashing_distractor,0,0,0,0,0,1,./stimuli/demo_stims/earring_01b.jpg,./stimuli/demo_stims/shuffleboard_13s.jpg,./stimuli/demo_stims/spout_05s.jpg,./stimuli/demo_stims/earring_01b.jpg,./stimuli/demo_stims/shuffleboard_13s.jpg,0.09625,0.06875,0.048125,-0.034375,right,0.33,./stimuli/demo_stims/earring_02s.jpg,im1_distractor,./stimuli/demo_stims/earring_11n.jpg,im1_distractor,./stimuli/demo_stims/shuffleboard_01b.jpg,im2_distractor,./stimuli/demo_stims/shuffleboard_07s.jpg,im2_distractor,0,-0.35,0.37,-0.25,-0.37,0.25,0.37,0.25,0,0.35,-0.37,-0.25,./stimuli/demo_stims/shuffleboard_13s.jpg,./stimuli/demo_stims/earring_01b.jpg,right,./stimuli/cue_right.png,,,,,,,,,97.8895,103.6341,y,4.7329,,103.6343,108.9011,y,5.2442,,y,4.2433,,108.9013,115.5258,y,5.6113,,115.5259,124.5435,y,8.0038,,124.5546,125.9501,y,1.3833,,125.9502,127.9462,130.4423,132.4428,132.4431,132.6921,132.6921,133.5057,133.5061,133.5065,133.5065,133.5078,136.5093,136.5101,,0,0,0,1,1,,,,,,,,,,,,,,,,,,,,,,,,,,,,,,,,
,,124927,2024-10-18_24h24.24.353,WM_Deepgen,2023.2.1,MacIntel,128.2051282,,,,,,,,,,,,,,,,,,,,,,,,,,,,,,,,,,,,137.5091,139.5091,139.5092,140.0104,143.066,146.066,[-0.3613467261904762],[0.20814732142857142],[1],[0],[0],[2.3823000000711545],"[""distractor_im_0""]",0,demo,,,146.0664,147.067,,,,,,img1,0.666666667,valid,img1,2,2,0.5,0.25,0,0,3,0,1,flashing_distractor,0,0,0,0,0,-1,./stimuli/demo_stims/hippopotamus_03s.jpg,./stimuli/demo_stims/chainsaw_16s.jpg,./stimuli/demo_stims/coffee_pot_02s.jpg,./stimuli/demo_stims/chainsaw_16s.jpg,./stimuli/demo_stims/hippopotamus_03s.jpg,0.09625,0.06875,0.048125,-0.034375,right,0.33,./stimuli/demo_stims/hippopotamus_16s.jpg,im1_distractor,./stimuli/demo_stims/hippopotamus_11s.jpg,im1_distractor,./stimuli/demo_stims/chainsaw_08s.jpg,im2_distractor,./stimuli/demo_stims/chainsaw_06s.jpg,im2_distractor,-0.37,-0.25,0.37,-0.25,-0.37,0.25,0,0.35,0.37,0.25,0,-0.35,./stimuli/demo_stims/hippopotamus_03s.jpg,./stimuli/demo_stims/chainsaw_16s.jpg,right,./stimuli/cue_right.png,,,,,,,,,,,,,,,,,,,,,,,,,,,,,,,,,,,,,,,140.0106,142.0118,142.0119,142.2587,142.2588,143.0659,143.0659,143.0659,143.0659,143.066,146.0661,146.0663,,0,1,1,0,1,,,,,,,,,,,,,,,,,,,,,,,,,,,,,,,,
,,124927,2024-10-18_24h24.24.353,WM_Deepgen,2023.2.1,MacIntel,128.2051282,,,,,,,,,,,,,,,,,,,,,,,,,,,,,,,,,,,,147.0789,149.0762,149.0763,149.5748,152.6271,155.6257,[0.43037781084656085],[0.29567212301587303],[1],[0],[0],[1.9226000000244312],"[""memoranda_stim""]",1,demo,,,155.6261,156.6257,,,,,,img1,0.666666667,valid,img1,2,2,0.5,0.25,0,0,3,0,1,flashing_distractor,0,0,0,0,0,1,./stimuli/demo_stims/spatula_13s.jpg,./stimuli/demo_stims/baton1_04s.jpg,./stimuli/demo_stims/chime_06s.jpg,./stimuli/demo_stims/spatula_13s.jpg,./stimuli/demo_stims/baton1_04s.jpg,0.06875,0.09625,0.034375,-0.048125,left,0.33,./stimuli/demo_stims/spatula_03s.jpg,im1_distractor,./stimuli/demo_stims/spatula_02s.jpg,im1_distractor,./stimuli/demo_stims/baton1_13s.jpg,im2_distractor,./stimuli/demo_stims/baton1_15s.jpg,im2_distractor,0.37,0.25,0,0.35,-0.37,-0.25,-0.37,0.25,0.37,-0.25,0,-0.35,./stimuli/demo_stims/spatula_13s.jpg,./stimuli/demo_stims/baton1_04s.jpg,left,./stimuli/cue_left.png,,,,,,,,,,,,,,,,,,,,,,,,,,,,,,,,,,,,,,,149.5749,151.5762,151.5762,151.8252,151.8253,152.6266,152.6267,152.6269,152.6269,152.6269,155.6259,155.6261,,0,2,2,2,1,,,,,,,,,,,,,,,,,,,,,,,,,,,,,,,,
,,124927,2024-10-18_24h24.24.353,WM_Deepgen,2023.2.1,MacIntel,128.2051282,,,,,,,,,,,,,,,,,,,,,,,,,,,,,,,,,,,,156.6265,12463.2296,12463.2296,12463.2649,12464.0728,12467.0728,[],[],[],[],[],[],[],0,demo,,,12467.0729,12468.0728,,,,,,img1,0.833333333,valid,img1,2,2,0.5,0.25,0,0,3,0,1,flashing_distractor,0,0,0,0,0,-1,./stimuli/demo_stims/apple_08s.jpg,./stimuli/demo_stims/kale_11s.jpg,./stimuli/demo_stims/bonnet_12s.jpg,./stimuli/demo_stims/kale_11s.jpg,./stimuli/demo_stims/apple_08s.jpg,0.15125,0.01375,0.075625,-0.006875,right,0.33,./stimuli/demo_stims/apple_09s.jpg,im1_distractor,./stimuli/demo_stims/apple_03s.jpg,im1_distractor,./stimuli/demo_stims/kale_12s.jpg,im2_distractor,./stimuli/demo_stims/kale_02s.jpg,im2_distractor,-0.37,0.25,0,-0.35,0.37,0.25,0,0.35,-0.37,-0.25,0.37,-0.25,./stimuli/demo_stims/apple_08s.jpg,./stimuli/demo_stims/kale_11s.jpg,right,./stimuli/cue_right.png,,,,,,,,,,,,,,,,,,,,,,,,,,,,,,,,,,,,,,,12463.2649,12463.2653,12463.2654,12463.2654,12463.2654,12464.0728,12464.0728,12464.0728,12464.0728,12464.0728,12467.0728,12467.0729,,0,3,3,4,1,,,,,,,,,,,,,,,,,,,,,,,,,,,,,,,,
,,124927,2024-10-18_24h24.24.353,WM_Deepgen,2023.2.1,MacIntel,128.2051282,,,,,,,,,,,,,,,,,,,,,,,,,,,,,,,,,,,,12468.0731,12470.0727,12470.0727,12470.5728,12473.6327,12476.6311,"[0.08957506613756613,0.03148974867724868,0.03148974867724868]","[0.34365079365079365,0.3205026455026455,0.3205026455026455]","[1,1,1]","[0,0,0]","[0,0,0]","[0.9527000000489352,1.89350000000195,2.501900000097521]","[""distractor_mem_stim"",""distractor_mem_stim"",""distractor_mem_stim""]",0,demo,,,12476.6313,12477.6348,,,,,,img2,0.833333333,invalid,img1,2,2,0.5,0.25,0,0,3,0,1,flashing_distractor,0,0,0,0,0,-1,./stimuli/demo_stims/lollipop_10s.jpg,./stimuli/demo_stims/man_05s.jpg,./stimuli/demo_stims/coil_02s.jpg,./stimuli/demo_stims/man_05s.jpg,./stimuli/demo_stims/lollipop_10s.jpg,0.01375,0.15125,0.006875,-0.075625,left,0.33,./stimuli/demo_stims/lollipop_06n.jpg,im1_distractor,./stimuli/demo_stims/lollipop_03s.jpg,im1_distractor,./stimuli/demo_stims/man_10s.jpg,im2_distractor,./stimuli/demo_stims/man_02s.jpg,im2_distractor,-0.37,0.25,0,0.35,0,-0.35,-0.37,-0.25,0.37,0.25,0.37,-0.25,./stimuli/demo_stims/lollipop_10s.jpg,./stimuli/demo_stims/man_05s.jpg,right,./stimuli/cue_right.png,,,,,,,,,,,,,,,,,,,,,,,,,,,,,,,,,,,,,,,12470.5728,12472.5727,12472.5729,12472.8227,12472.8229,12473.6321,12473.6322,12473.6325,12473.6325,12473.6327,12476.6311,12476.6312,,0,4,4,3,1,,,,,,,,,,,,,,,,,,,,,,,,,,,,,,,,
,,124927,2024-10-18_24h24.24.353,WM_Deepgen,2023.2.1,MacIntel,128.2051282,,,,,,,,,,,,,,,,,,,,,,,,,,,,,,,,,,,,,,,,,,,,,,,,,,,,,,,,,,,,,,,,,,,,,,,,,,,,,,,,,,,,,,,,,,,,,,,,,,,,,,,,,,,,,,,,,,,,,,,,,,,,,,,,,,,,,,,,,,,,,,,,,,,,,,,,,,,,,,,,,,,,,,,,,,,12477.6426,12477.6434,,0,0,0,0,1,,,,,,,,,,,,,,,,,,,,,,,,
,,124927,2024-10-18_24h24.24.353,WM_Deepgen,2023.2.1,MacIntel,128.2051282,,,,,,,,,,,,,,,,,,,,,,,,,,,,,,,,,,,,,,,,,,,,,,,,,,demo,,,,,,,,,,,,,,,,,,,,,,,,,,,,,,,,,,,,,,,,,,,,,,,,,,,,,,,,,,,,,,,,,,,,,,,,,,,,,,,,,,,,,,,,,,,,,,,,,,,,,,,,,,,,,,,,,,,,,,,,,,,,,,,,,0,0,0,0,1,./demo.csv,"Now you will do a few demo trials to get accustomed to the cues.

Press 'y' to continue.",,,,,,,,,,,,,,,,,
,,124927,2024-10-18_24h24.24.353,WM_Deepgen,2023.2.1,MacIntel,128.2051282,,,,,,,,,,,,,,,,,,,,,,,,,,,,,,,,,,,,12483.6074,12484.6104,12484.6105,12485.1096,12488.1114,12491.1101,[0.348755787037037],[0.2688905423280423],[1],[0],[0],[2.1628000000710017],"[""memoranda_stim""]",1,practice,,,12491.1106,12492.1102,,,,,,img2,0.666666667,valid,img2,1,1,0.5,0.25,1,0.75,3,0,1,flashing_distractor,0.2,0.2,0.2,0.2,0.2,1,./stimuli/demo_stims/helmet_11s.jpg,./stimuli/demo_stims/pancake_11s.jpg,./stimuli/demo_stims/paintbrush_11s.jpg,./stimuli/demo_stims/helmet_11s.jpg,./stimuli/demo_stims/pancake_11s.jpg,0.09625,0.06875,0.048125,-0.034375,right,0.33,./stimuli/demo_stims/helmet_12s.jpg,im1_distractor,./stimuli/demo_stims/helmet_07s.jpg,im1_distractor,./stimuli/demo_stims/pancake_12s.jpg,im2_distractor,./stimuli/demo_stims/pancake_02n.jpg,im2_distractor,0.37,0.25,0,0.35,-0.37,0.25,-0.37,-0.25,0.37,-0.25,0,-0.35,./stimuli/demo_stims/pancake_11s.jpg,./stimuli/demo_stims/helmet_11s.jpg,right,./stimuli/cue_right.png,,,,,,,,,,,,,,,,,,,,,,,,,,,,,,,,12477.6445,12481.6041,y,3.9485,,12481.614,12483.6019,12485.1097,12486.1145,12486.1147,12486.3634,12486.3636,12487.361,12487.3622,12487.3626,12487.3628,12488.1111,12491.1104,12491.1105,,0,0,0,2,1,,,,,,,,,,,,,,,,,,,,,,,,,,,,,,,,
,,124927,2024-10-18_24h24.24.353,WM_Deepgen,2023.2.1,MacIntel,128.2051282,,,,,,,,,,,,,,,,,,,,,,,,,,,,,,,,,,,,12492.1178,,,,,,,,,,,,,,practice,,,,,,,,,,img1,0.666666667,valid,img1,1,1,0.5,0.25,1,0.75,3,0,1,flashing_distractor,0.2,0.2,0.2,0.2,0.2,1,./stimuli/demo_stims/diamond_11s.jpg,./stimuli/demo_stims/granola_12s.jpg,./stimuli/demo_stims/tree_10s.jpg,./stimuli/demo_stims/diamond_11s.jpg,./stimuli/demo_stims/granola_12s.jpg,0.06875,0.09625,0.034375,-0.048125,left,0.33,./stimuli/demo_stims/diamond_09s.jpg,im1_distractor,./stimuli/demo_stims/diamond_10s.jpg,im1_distractor,./stimuli/demo_stims/granola_11s.jpg,im2_distractor,./stimuli/demo_stims/granola_13s.jpg,im2_distractor,-0.37,0.25,0.37,0.25,-0.37,-0.25,0.37,-0.25,0,-0.35,0,0.35,./stimuli/demo_stims/diamond_11s.jpg,./stimuli/demo_stims/granola_12s.jpg,left,./stimuli/cue_left.png,,,,,,,,,,,,,,,,,,,,,,,,,,,,,,,,,,,,,,,,,,,,,,,,,,,,0,1,1,1,1,,,,0,0,0,0,1,0,1,1,1,1,./prac.csv,"Now you will do a few practice trials to get accustomed to the task.

The practice trials are identical to what you just did except for two changes.

First, the task is a bit faster paced.

Second, after you see the rectangle image telling you which item is more likely to be tested, a new image will briefly flash at the center of the screen. This item is irrelevant to your memory task and can be ignored.

Press 'y' to continue.",0,0,0,0,1,0,0,0,0,8,1,10,./resources/taskPhases_8.csv,taskPhases_8,2,4,11