setup_js.started,setup_js.stopped,participant,date,expName,psychopyVersion,OS,frameRate,Instructions1.started,Instructions1.stopped,key_resp_2.keys,key_resp_2.rt,key_resp_2.duration,Instructions2.started,Instructions2.stopped,key_resp_3.keys,key_resp_3.rt,key_resp_3.duration,Instructions3.started,Instructions3.stopped,key_resp_4.keys,key_resp_4.rt,key_resp_4.duration,Instructions4.started,Instructions4.stopped,key_resp_5.keys,key_resp_5.rt,key_resp_5.duration,Instructions5.started,Instructions5.stopped,key_resp_10.keys,key_resp_10.rt,key_resp_10.duration,Instructions6b.started,Instructions6b.stopped,key_resp_16.keys,key_resp_16.rt,key_resp_16.duration,Instructions6.started,Instructions6.stopped,key_resp_13.keys,key_resp_13.rt,key_resp_13.duration,memoranda.started,memoranda.stopped,isi1.started,isi1.stopped,probe.started,probe.stopped,mouse.x,mouse.y,mouse.leftButton,mouse.midButton,mouse.rightButton,mouse.time,mouse.clicked_name,resp_correct,taskPhase,correct_ans.started,correct_ans.stopped,ITI.started,ITI.stopped,prac_trials.thisRepN,prac_trials.thisTrialN,prac_trials.thisN,prac_trials.thisIndex,prac_trials.ran,attend,reliability,validity,test_item,reliability_time,cue_time,delay_1_time,delay_2_time,ping_time,delay_3_time,probe_time,noise_mask_time,iti_dur,pilot_info,ping_im_flash1,ping_im_flash2,ping_im_flash3,ping_im_flash4,ping_im_flash5,stim_side,img1,img2,ping_img,left_img,right_img,right_cue_length,left_cue_length,right_cue_offset,left_cue_offset,attend_direction,rec_length,distractor_0,distractor_0_type,distractor_1,distractor_1_type,distractor_2,distractor_2_type,distractor_3,distractor_3_type,mem_x,mem_y,dismem_x,dismem_y,dis0_x,dis0_y,dis1_x,dis1_y,dis2_x,dis2_y,dis3_x,dis3_y,mem_stim,distractor_stim,probe_direction,cue_img,repeat_code.started,repeat_code.stopped,key_resp_14.keys,key_resp_14.rt,key_resp_14.duration,repeat_prac.thisRepN,repeat_prac.thisTrialN,repeat_prac.thisN,repeat_prac.thisIndex,repeat_prac.ran,Instructions7.started,Instructions7.stopped,key_resp_15.keys,key_resp_15.rt,key_resp_15.duration,Instructions8.started,Instructions8.stopped,key_resp_6.keys,key_resp_6.rt,key_resp_6.duration,key_resp_7.keys,key_resp_7.rt,key_resp_7.duration,Instructions9.started,Instructions9.stopped,key_resp_8.keys,key_resp_8.rt,key_resp_8.duration,Instructions10.started,Instructions10.stopped,key_resp_9.keys,key_resp_9.rt,key_resp_9.duration,intro_txt.started,intro_txt.stopped,key_resp_11.keys,key_resp_11.rt,key_resp_11.duration,initial_wait.started,initial_wait.stopped,reliability_cue.started,reliability_cue.stopped,isi2.started,isi2.stopped,ping.started,ping.stopped,noise_mask.started,noise_mask.stopped,isi3.started,isi3.stopped,block_break.started,block_break.stopped,key_resp.keys,loop_trials.thisRepN,loop_trials.thisTrialN,loop_trials.thisN,loop_trials.thisIndex,loop_trials.ran,repeat_practice_code.started,repeat_practice_code.stopped,key_resp_12.keys,key_resp_12.rt,key_resp_12.duration,repeat_practice.thisRepN,repeat_practice.thisTrialN,repeat_practice.thisN,repeat_practice.thisIndex,repeat_practice.ran,trials.thisRepN,trials.thisTrialN,trials.thisN,trials.thisIndex,trials.ran,trials.order,trials_3.thisRepN,trials_3.thisTrialN,trials_3.thisN,trials_3.thisIndex,trials_3.ran,trials_3.order,taskPhases,conditions_choice,demo_prac_task.thisRepN,demo_prac_task.thisTrialN,demo_prac_task.thisN,demo_prac_task.thisIndex,demo_prac_task.ran,demo_prac_task.order,condsFile,introTXT,repeat_practice.order
0.0001,0.000200001,151942,2024-10-18_15h43.47.345,WM_Deepgen,2023.2.1,MacIntel,59.88023952,,,,,,,,,,,,,,,,,,,,,,,,,,,,,,,,,,,,,,,,,,,,,,,,,,,,,,,,,,,,,,,,,,,,,,,,,,,,,,,,,,,,,,,,,,,,,,,,,,,,,,,,,,,,,,,,,,,,,,,,,,,,,,,,,,,,,,,,,,,,,,,,,,,,,,,,,,,,,,,,,,,,,,,,,,,,,,,,,,,,,,,,,,,,,,,,,,,,,,,,,,,,,
,,151942,2024-10-18_15h43.47.345,WM_Deepgen,2023.2.1,MacIntel,59.88023952,0.0003,48.1447,y,47.1183,0.0009,,,,,,,,,,,,,,,,,,,,,,,,,,,,,,,,,,,,,,,,,,,,,,,,,,,,,,,,,,,,,,,,,,,,,,,,,,,,,,,,,,,,,,,,,,,,,,,,,,,,,,,,,,,,,,,,,,,,,,,,,,,,,,,,,,,,,,,,,,,,,,,,,,,,,,,,,,,,,,,,,,,,,,,,,,,,,,,,,,,,,,,,,,,,,,,,,,,,,,,,
,,151942,2024-10-18_15h43.47.345,WM_Deepgen,2023.2.1,MacIntel,59.88023952,,,,,,48.1483,70.3441,y,21.1744,,70.3443,75.3606,y,3.9804,,75.3608,79.7939,y,3.410099999,,79.794,85.71,y,4.8812,,85.7102,86.9761,y,0.251099999,,86.9779,88.0094,y,0.010900001,,88.0149,90.0108,90.0109,90.5108,90.511,95.5106,[],[],[],[],[],[],[],0,intro,95.5108,96.5105,96.5106,97.5095,0,0,0,3,1,img1,0.666666667,valid,img1,0,2,0.5,0.25,0,0,5,0,1,flashing_distractor,0.2,0.2,0.2,0.2,0.2,-1,./stimuli/demo_stims/gavel_03s.jpg,./stimuli/demo_stims/cat_05s.jpg,./stimuli/demo_stims/scraper_12s.jpg,./stimuli/demo_stims/cat_05s.jpg,./stimuli/demo_stims/gavel_03s.jpg,0.09625,0.06875,0.048125,-0.034375,right,0.33,./stimuli/demo_stims/gavel_08s.jpg,im1_distractor,./stimuli/demo_stims/gavel_07s.jpg,im1_distractor,./stimuli/demo_stims/cat_08s.jpg,im2_distractor,./stimuli/demo_stims/cat_12s.jpg,im2_distractor,0,-0.35,0,0.35,0.37,0.25,0.37,-0.25,-0.37,-0.25,-0.37,0.25,./stimuli/demo_stims/gavel_03s.jpg,./stimuli/demo_stims/cat_05s.jpg,right,./stimuli/cue_right.png,,,,,,,,,,,,,,,,,,,,,,,,,,,,,,,,,,,,,,,,,,,,,,,,,,,,,,,,,,,,,,,,,,,,,,,,,,,,,,,,,,,,,,,,,,,
,,151942,2024-10-18_15h43.47.345,WM_Deepgen,2023.2.1,MacIntel,59.88023952,,,,,,,,,,,,,,,,,,,,,,,,,,,,,,,,,,,,97.5103,99.5102,99.5103,100.0093,100.0093,105.0104,[-0.39640625],[-0.2798394097222222],[1],[0],[0],[1.4657000007629222],"[""distractor_im_1""]",0,intro,105.0105,106.0104,106.0105,107.0105,0,1,1,0,1,img1,0.666666667,valid,img1,0,2,0.5,0.25,0,0,5,0,1,flashing_distractor,0.2,0.2,0.2,0.2,0.2,1,./stimuli/demo_stims/tricycle_12s.jpg,./stimuli/demo_stims/scarf_07s.jpg,./stimuli/demo_stims/hearse_02s.jpg,./stimuli/demo_stims/tricycle_12s.jpg,./stimuli/demo_stims/scarf_07s.jpg,0.06875,0.09625,0.034375,-0.048125,left,0.33,./stimuli/demo_stims/tricycle_07s.jpg,im1_distractor,./stimuli/demo_stims/tricycle_11s.jpg,im1_distractor,./stimuli/demo_stims/scarf_06s.jpg,im2_distractor,./stimuli/demo_stims/scarf_04s.jpg,im2_distractor,0.37,0.25,0,-0.35,0.37,-0.25,-0.37,-0.25,0,0.35,-0.37,0.25,./stimuli/demo_stims/tricycle_12s.jpg,./stimuli/demo_stims/scarf_07s.jpg,left,./stimuli/cue_left.png,,,,,,,,,,,,,,,,,,,,,,,,,,,,,,,,,,,,,,,,,,,,,,,,,,,,,,,,,,,,,,,,,,,,,,,,,,,,,,,,,,,,,,,,,,,
,,151942,2024-10-18_15h43.47.345,WM_Deepgen,2023.2.1,MacIntel,59.88023952,,,,,,,,,,,,,,,,,,,,,,,,,,,,,,,,,,,,107.011,109.0104,109.0105,109.5104,109.5104,114.5106,[-0.3767274305555556],[0.23643229166666666],[1],[0],[0],[2.0634999999999764],"[""memoranda_stim""]",1,intro,114.5107,115.5107,115.5108,116.5104,0,2,2,4,1,img1,0.666666667,valid,img1,0,2,0.5,0.25,0,0,5,0,1,flashing_distractor,0.2,0.2,0.2,0.2,0.2,1,./stimuli/demo_stims/bathmat_03s.jpg,./stimuli/demo_stims/paper_07s.jpg,./stimuli/demo_stims/pocket_08s.jpg,./stimuli/demo_stims/bathmat_03s.jpg,./stimuli/demo_stims/paper_07s.jpg,0.06875,0.09625,0.034375,-0.048125,left,0.33,./stimuli/demo_stims/bathmat_08s.jpg,im1_distractor,./stimuli/demo_stims/bathmat_04s.jpg,im1_distractor,./stimuli/demo_stims/paper_12s.jpg,im2_distractor,./stimuli/demo_stims/paper_08s.jpg,im2_distractor,-0.37,0.25,0.37,-0.25,0,-0.35,0,0.35,0.37,0.25,-0.37,-0.25,./stimuli/demo_stims/bathmat_03s.jpg,./stimuli/demo_stims/paper_07s.jpg,left,./stimuli/cue_left.png,,,,,,,,,,,,,,,,,,,,,,,,,,,,,,,,,,,,,,,,,,,,,,,,,,,,,,,,,,,,,,,,,,,,,,,,,,,,,,,,,,,,,,,,,,,
,,151942,2024-10-18_15h43.47.345,WM_Deepgen,2023.2.1,MacIntel,59.88023952,,,,,,,,,,,,,,,,,,,,,,,,,,,,,,,,,,,,116.511,118.5104,118.5105,119.0107,119.0108,124.0102,[-0.3893272569444444],[0.29397135416666664],[1],[0],[0],[1.8126000003813942],"[""distractor_im_1""]",0,intro,124.0102,125.0106,125.0106,126.0105,0,3,3,2,1,img2,0.833333333,valid,img2,0,2,0.5,0.25,0,0,5,0,1,flashing_distractor,0.2,0.2,0.2,0.2,0.2,-1,./stimuli/demo_stims/toilet_paper_10s.jpg,./stimuli/demo_stims/hatchet_01b.jpg,./stimuli/demo_stims/marshmallow_04s.jpg,./stimuli/demo_stims/hatchet_01b.jpg,./stimuli/demo_stims/toilet_paper_10s.jpg,0.01375,0.15125,0.006875,-0.075625,left,0.33,./stimuli/demo_stims/toilet_paper_18s.jpg,im1_distractor,./stimuli/demo_stims/toilet_paper_03s.jpg,im1_distractor,./stimuli/demo_stims/hatchet_08s.jpg,im2_distractor,./stimuli/demo_stims/hatchet_20s.jpg,im2_distractor,0,-0.35,0.37,-0.25,0.37,0.25,-0.37,0.25,-0.37,-0.25,0,0.35,./stimuli/demo_stims/hatchet_01b.jpg,./stimuli/demo_stims/toilet_paper_10s.jpg,left,./stimuli/cue_left.png,,,,,,,,,,,,,,,,,,,,,,,,,,,,,,,,,,,,,,,,,,,,,,,,,,,,,,,,,,,,,,,,,,,,,,,,,,,,,,,,,,,,,,,,,,,
,,151942,2024-10-18_15h43.47.345,WM_Deepgen,2023.2.1,MacIntel,59.88023952,,,,,,,,,,,,,,,,,,,,,,,,,,,,,,,,,,,,126.0111,128.0105,128.0106,128.5095,128.5095,133.5095,"[0.5144184027777777,0.362265625]","[-0.2879904513888889,-0.26479600694444444]","[1,1]","[0,0]","[0,0]","[2.764499999999998,3.1303000001906867]","[""distractor_mem_stim""]",0,intro,133.5096,134.5104,134.5105,135.5103,0,4,4,1,1,img1,0.666666667,invalid,img2,0,2,0.5,0.25,0,0,5,0,1,flashing_distractor,0.2,0.2,0.2,0.2,0.2,1,./stimuli/demo_stims/fire_alarm_01b.jpg,./stimuli/demo_stims/gorilla_02s.jpg,./stimuli/demo_stims/barbell_08s.jpg,./stimuli/demo_stims/fire_alarm_01b.jpg,./stimuli/demo_stims/gorilla_02s.jpg,0.06875,0.09625,0.034375,-0.048125,left,0.33,./stimuli/demo_stims/fire_alarm_20s.jpg,im1_distractor,./stimuli/demo_stims/fire_alarm_07s.jpg,im1_distractor,./stimuli/demo_stims/gorilla_21s.jpg,im2_distractor,./stimuli/demo_stims/gorilla_12s.jpg,im2_distractor,0,-0.35,0.37,-0.25,0,0.35,-0.37,-0.25,0.37,0.25,-0.37,0.25,./stimuli/demo_stims/gorilla_02s.jpg,./stimuli/demo_stims/fire_alarm_01b.jpg,right,./stimuli/cue_right.png,,,,,,,,,,,,,,,,,,,,,,,,,,,,,,,,,,,,,,,,,,,,,,,,,,,,,,,,,,,,,,,,,,,,,,,,,,,,,,,,,,,,,,,,,,,
,,151942,2024-10-18_15h43.47.345,WM_Deepgen,2023.2.1,MacIntel,59.88023952,,,,,,,,,,,,,,,,,,,,,,,,,,,,,,,,,,,,,,,,,,,,,,,,,,,,,,,,,,,,,,,,,,,,,,,,,,,,,,,,,,,,,,,,,,,,,,,,,,,,,,,,,,,,,,,,,,,135.5107,137.5104,y,0.9796,,0,0,0,0,1,,,,,,,,,,,,,,,,,,,,,,,,,,,,,,,,,,,,,,,,,,,,,,,,,,,,,,,,,,,,,,,,,,,,,,,,,,,,,,,,,
,,151942,2024-10-18_15h43.47.345,WM_Deepgen,2023.2.1,MacIntel,59.88023952,,,,,,,,,,,,,,,,,,,,,,,,,,,,,,,137.5108,142.1925,y,3.6606,,142.1953,144.1942,144.1944,144.6938,144.6938,149.6926,[-0.3138151041666667],[-0.29410590277777776],[1],[0],[0],[3.180399999618544],"[""distractor_im_1""]",0,intro,149.6928,150.6938,150.6939,151.6928,0,0,0,0,1,img1,0.666666667,valid,img1,0,2,0.5,0.25,0,0,5,0,1,flashing_distractor,0.2,0.2,0.2,0.2,0.2,1,./stimuli/demo_stims/tricycle_12s.jpg,./stimuli/demo_stims/scarf_07s.jpg,./stimuli/demo_stims/hearse_02s.jpg,./stimuli/demo_stims/tricycle_12s.jpg,./stimuli/demo_stims/scarf_07s.jpg,0.06875,0.09625,0.034375,-0.048125,left,0.33,./stimuli/demo_stims/tricycle_07s.jpg,im1_distractor,./stimuli/demo_stims/tricycle_11s.jpg,im1_distractor,./stimuli/demo_stims/scarf_06s.jpg,im2_distractor,./stimuli/demo_stims/scarf_04s.jpg,im2_distractor,0.37,0.25,0,-0.35,0.37,-0.25,-0.37,-0.25,0,0.35,-0.37,0.25,./stimuli/demo_stims/tricycle_12s.jpg,./stimuli/demo_stims/scarf_07s.jpg,left,./stimuli/cue_left.png,,,,,,,,,,,,,,,,,,,,,,,,,,,,,,,,,,,,,,,,,,,,,,,,,,,,,,,,,,,,,,,,,,,,,,,,,,,,,,,,,,,,,,,,,,,
,,151942,2024-10-18_15h43.47.345,WM_Deepgen,2023.2.1,MacIntel,59.88023952,,,,,,,,,,,,,,,,,,,,,,,,,,,,,,,,,,,,151.6934,153.6927,153.6929,154.193,154.1931,159.1937,[-0.369609375],[0.20596354166666667],[1],[0],[0],[1.6649000005721746],"[""memoranda_stim""]",1,intro,159.1938,160.1933,160.1933,161.1936,0,1,1,4,1,img1,0.666666667,valid,img1,0,2,0.5,0.25,0,0,5,0,1,flashing_distractor,0.2,0.2,0.2,0.2,0.2,1,./stimuli/demo_stims/bathmat_03s.jpg,./stimuli/demo_stims/paper_07s.jpg,./stimuli/demo_stims/pocket_08s.jpg,./stimuli/demo_stims/bathmat_03s.jpg,./stimuli/demo_stims/paper_07s.jpg,0.06875,0.09625,0.034375,-0.048125,left,0.33,./stimuli/demo_stims/bathmat_08s.jpg,im1_distractor,./stimuli/demo_stims/bathmat_04s.jpg,im1_distractor,./stimuli/demo_stims/paper_12s.jpg,im2_distractor,./stimuli/demo_stims/paper_08s.jpg,im2_distractor,-0.37,0.25,0.37,-0.25,0,-0.35,0,0.35,0.37,0.25,-0.37,-0.25,./stimuli/demo_stims/bathmat_03s.jpg,./stimuli/demo_stims/paper_07s.jpg,left,./stimuli/cue_left.png,,,,,,,,,,,,,,,,,,,,,,,,,,,,,,,,,,,,,,,,,,,,,,,,,,,,,,,,,,,,,,,,,,,,,,,,,,,,,,,,,,,,,,,,,,,
,,151942,2024-10-18_15h43.47.345,WM_Deepgen,2023.2.1,MacIntel,59.88023952,,,,,,,,,,,,,,,,,,,,,,,,,,,,,,,,,,,,161.1941,163.1927,163.1927,163.6928,163.6928,168.6939,[0.0078515625],[-0.44318576388888886],[1],[0],[0],[2.1140000000000327],"[""memoranda_stim""]",1,intro,168.694,169.6939,169.6941,170.6939,0,2,2,1,1,img1,0.666666667,invalid,img2,0,2,0.5,0.25,0,0,5,0,1,flashing_distractor,0.2,0.2,0.2,0.2,0.2,1,./stimuli/demo_stims/fire_alarm_01b.jpg,./stimuli/demo_stims/gorilla_02s.jpg,./stimuli/demo_stims/barbell_08s.jpg,./stimuli/demo_stims/fire_alarm_01b.jpg,./stimuli/demo_stims/gorilla_02s.jpg,0.06875,0.09625,0.034375,-0.048125,left,0.33,./stimuli/demo_stims/fire_alarm_20s.jpg,im1_distractor,./stimuli/demo_stims/fire_alarm_07s.jpg,im1_distractor,./stimuli/demo_stims/gorilla_21s.jpg,im2_distractor,./stimuli/demo_stims/gorilla_12s.jpg,im2_distractor,0,-0.35,0.37,-0.25,0,0.35,-0.37,-0.25,0.37,0.25,-0.37,0.25,./stimuli/demo_stims/gorilla_02s.jpg,./stimuli/demo_stims/fire_alarm_01b.jpg,right,./stimuli/cue_right.png,,,,,,,,,,,,,,,,,,,,,,,,,,,,,,,,,,,,,,,,,,,,,,,,,,,,,,,,,,,,,,,,,,,,,,,,,,,,,,,,,,,,,,,,,,,
,,151942,2024-10-18_15h43.47.345,WM_Deepgen,2023.2.1,MacIntel,59.88023952,,,,,,,,,,,,,,,,,,,,,,,,,,,,,,,,,,,,170.6948,172.6938,172.6938,173.1928,173.1929,178.1938,[0.06963541666666667],[-0.37590711805555554],[1],[0],[0],[1.5314999999999372],"[""memoranda_stim""]",1,intro,178.194,179.1939,179.1939,180.1938,0,3,3,3,1,img1,0.666666667,valid,img1,0,2,0.5,0.25,0,0,5,0,1,flashing_distractor,0.2,0.2,0.2,0.2,0.2,-1,./stimuli/demo_stims/gavel_03s.jpg,./stimuli/demo_stims/cat_05s.jpg,./stimuli/demo_stims/scraper_12s.jpg,./stimuli/demo_stims/cat_05s.jpg,./stimuli/demo_stims/gavel_03s.jpg,0.09625,0.06875,0.048125,-0.034375,right,0.33,./stimuli/demo_stims/gavel_08s.jpg,im1_distractor,./stimuli/demo_stims/gavel_07s.jpg,im1_distractor,./stimuli/demo_stims/cat_08s.jpg,im2_distractor,./stimuli/demo_stims/cat_12s.jpg,im2_distractor,0,-0.35,0,0.35,0.37,0.25,0.37,-0.25,-0.37,-0.25,-0.37,0.25,./stimuli/demo_stims/gavel_03s.jpg,./stimuli/demo_stims/cat_05s.jpg,right,./stimuli/cue_right.png,,,,,,,,,,,,,,,,,,,,,,,,,,,,,,,,,,,,,,,,,,,,,,,,,,,,,,,,,,,,,,,,,,,,,,,,,,,,,,,,,,,,,,,,,,,
,,151942,2024-10-18_15h43.47.345,WM_Deepgen,2023.2.1,MacIntel,59.88023952,,,,,,,,,,,,,,,,,,,,,,,,,,,,,,,,,,,,180.1946,182.1933,182.1933,182.6935,182.6935,187.6925,[-0.015868055555555555],[-0.39471354166666667],[1],[0],[0],[2.247799999237145],"[""memoranda_stim""]",1,intro,187.6926,188.694,188.694,189.6935,0,4,4,2,1,img2,0.833333333,valid,img2,0,2,0.5,0.25,0,0,5,0,1,flashing_distractor,0.2,0.2,0.2,0.2,0.2,-1,./stimuli/demo_stims/toilet_paper_10s.jpg,./stimuli/demo_stims/hatchet_01b.jpg,./stimuli/demo_stims/marshmallow_04s.jpg,./stimuli/demo_stims/hatchet_01b.jpg,./stimuli/demo_stims/toilet_paper_10s.jpg,0.01375,0.15125,0.006875,-0.075625,left,0.33,./stimuli/demo_stims/toilet_paper_18s.jpg,im1_distractor,./stimuli/demo_stims/toilet_paper_03s.jpg,im1_distractor,./stimuli/demo_stims/hatchet_08s.jpg,im2_distractor,./stimuli/demo_stims/hatchet_20s.jpg,im2_distractor,0,-0.35,0.37,-0.25,0.37,0.25,-0.37,0.25,-0.37,-0.25,0,0.35,./stimuli/demo_stims/hatchet_01b.jpg,./stimuli/demo_stims/toilet_paper_10s.jpg,left,./stimuli/cue_left.png,,,,,,,,,,,,,,,,,,,,,,,,,,,,,,,,,,,,,,,,,,,,,,,,,,,,,,,,,,,,,,,,,,,,,,,,,,,,,,,,,,,,,,,,,,,
,,151942,2024-10-18_15h43.47.345,WM_Deepgen,2023.2.1,MacIntel,59.88023952,,,,,,,,,,,,,,,,,,,,,,,,,,,,,,,,,,,,,,,,,,,,,,,,,,,,,,,,,,,,,,,,,,,,,,,,,,,,,,,,,,,,,,,,,,,,,,,,,,,,,,,,,,,,,,,,,,,189.6936,189.6938,,,,1,0,1,0,1,,,,,,,,,,,,,,,,,,,,,,,,,,,,,,,,,,,,,,,,,,,,,,,,,,,,,,,,,,,,,,,,,,,,,,,,,,,,,,,,,
,,151942,2024-10-18_15h43.47.345,WM_Deepgen,2023.2.1,MacIntel,59.88023952,,,,,,,,,,,,,,,,,,,,,,,,,,,,,,,,,,,,206.7976,208.7937,208.7938,209.2929,212.3617,215.3606,[0.27456163194444444],[-0.26815972222222223],[1],[0],[0],[2.4633000001906566],"[""distractor_mem_stim""]",0,demo,,,215.3626,216.3599,,,,,,img1,0.666666667,valid,img1,2,2,0.5,0.25,0,0,3,0,1,flashing_distractor,0,0,0,0,0,-1,./stimuli/demo_stims/hippopotamus_03s.jpg,./stimuli/demo_stims/chainsaw_16s.jpg,./stimuli/demo_stims/coffee_pot_02s.jpg,./stimuli/demo_stims/chainsaw_16s.jpg,./stimuli/demo_stims/hippopotamus_03s.jpg,0.09625,0.06875,0.048125,-0.034375,right,0.33,./stimuli/demo_stims/hippopotamus_16s.jpg,im1_distractor,./stimuli/demo_stims/hippopotamus_11s.jpg,im1_distractor,./stimuli/demo_stims/chainsaw_08s.jpg,im2_distractor,./stimuli/demo_stims/chainsaw_06s.jpg,im2_distractor,-0.37,-0.25,0.37,-0.25,-0.37,0.25,0,0.35,0.37,0.25,0,-0.35,./stimuli/demo_stims/hippopotamus_03s.jpg,./stimuli/demo_stims/chainsaw_16s.jpg,right,./stimuli/cue_right.png,,,,,,,,,,,189.6941,198.2612,y,7.5597,,198.2614,200.6936,y,2.4024,,y,1.3954,,200.6936,202.2609,y,0.5322,,202.2611,203.7606,y,0.4698,,203.7641,204.7939,y,1.0092,,204.794,206.794,209.293,211.294,211.294,211.5438,211.5438,212.3606,212.3608,212.3611,212.3612,212.3617,215.3611,215.3625,,0,0,0,0,1,,,,,,,,,,,,,,,,,,,,,,,,,,,,,,,,,
,,151942,2024-10-18_15h43.47.345,WM_Deepgen,2023.2.1,MacIntel,59.88023952,,,,,,,,,,,,,,,,,,,,,,,,,,,,,,,,,,,,216.3606,218.3604,218.3606,218.8606,221.9271,224.927,[0.2947439236111111],[-0.2602951388888889],[1],[0],[0],[1.947299999236975],"[""distractor_mem_stim""]",0,demo,,,224.9272,225.9271,,,,,,img2,0.666666667,valid,img2,2,2,0.5,0.25,0,0,3,0,1,flashing_distractor,0,0,0,0,0,1,./stimuli/demo_stims/earring_01b.jpg,./stimuli/demo_stims/shuffleboard_13s.jpg,./stimuli/demo_stims/spout_05s.jpg,./stimuli/demo_stims/earring_01b.jpg,./stimuli/demo_stims/shuffleboard_13s.jpg,0.09625,0.06875,0.048125,-0.034375,right,0.33,./stimuli/demo_stims/earring_02s.jpg,im1_distractor,./stimuli/demo_stims/earring_11n.jpg,im1_distractor,./stimuli/demo_stims/shuffleboard_01b.jpg,im2_distractor,./stimuli/demo_stims/shuffleboard_07s.jpg,im2_distractor,0,-0.35,0.37,-0.25,-0.37,0.25,0.37,0.25,0,0.35,-0.37,-0.25,./stimuli/demo_stims/shuffleboard_13s.jpg,./stimuli/demo_stims/earring_01b.jpg,right,./stimuli/cue_right.png,,,,,,,,,,,,,,,,,,,,,,,,,,,,,,,,,,,,,,,,,218.8607,220.8607,220.8607,221.1107,221.1107,221.9271,221.9271,221.9271,221.9271,221.9271,224.9271,224.9272,,0,1,1,1,1,,,,,,,,,,,,,,,,,,,,,,,,,,,,,,,,,
,,151942,2024-10-18_15h43.47.345,WM_Deepgen,2023.2.1,MacIntel,59.88023952,,,,,,,,,,,,,,,,,,,,,,,,,,,,,,,,,,,,225.9275,227.9271,227.9271,228.4263,231.4939,234.4941,[-0.0754296875],[0.33477430555555554],[1],[0],[0],[1.4646000003815516],"[""distractor_mem_stim""]",0,demo,,,234.4945,235.4936,,,,,,img2,0.833333333,invalid,img1,2,2,0.5,0.25,0,0,3,0,1,flashing_distractor,0,0,0,0,0,-1,./stimuli/demo_stims/lollipop_10s.jpg,./stimuli/demo_stims/man_05s.jpg,./stimuli/demo_stims/coil_02s.jpg,./stimuli/demo_stims/man_05s.jpg,./stimuli/demo_stims/lollipop_10s.jpg,0.01375,0.15125,0.006875,-0.075625,left,0.33,./stimuli/demo_stims/lollipop_06n.jpg,im1_distractor,./stimuli/demo_stims/lollipop_03s.jpg,im1_distractor,./stimuli/demo_stims/man_10s.jpg,im2_distractor,./stimuli/demo_stims/man_02s.jpg,im2_distractor,-0.37,0.25,0,0.35,0,-0.35,-0.37,-0.25,0.37,0.25,0.37,-0.25,./stimuli/demo_stims/lollipop_10s.jpg,./stimuli/demo_stims/man_05s.jpg,right,./stimuli/cue_right.png,,,,,,,,,,,,,,,,,,,,,,,,,,,,,,,,,,,,,,,,,228.4264,230.4271,230.4272,230.6771,230.6771,231.4938,231.4938,231.4938,231.4938,231.4939,234.4943,234.4945,,0,2,2,3,1,,,,,,,,,,,,,,,,,,,,,,,,,,,,,,,,,
,,151942,2024-10-18_15h43.47.345,WM_Deepgen,2023.2.1,MacIntel,59.88023952,,,,,,,,,,,,,,,,,,,,,,,,,,,,,,,,,,,,235.4942,237.4933,237.4934,237.9935,241.0605,244.0604,[0.1259592013888889],[0.3590451388888889],[1],[0],[0],[2.314000000000078],[],0,demo,,,244.0607,245.0602,,,,,,img1,0.666666667,valid,img1,2,2,0.5,0.25,0,0,3,0,1,flashing_distractor,0,0,0,0,0,1,./stimuli/demo_stims/spatula_13s.jpg,./stimuli/demo_stims/baton1_04s.jpg,./stimuli/demo_stims/chime_06s.jpg,./stimuli/demo_stims/spatula_13s.jpg,./stimuli/demo_stims/baton1_04s.jpg,0.06875,0.09625,0.034375,-0.048125,left,0.33,./stimuli/demo_stims/spatula_03s.jpg,im1_distractor,./stimuli/demo_stims/spatula_02s.jpg,im1_distractor,./stimuli/demo_stims/baton1_13s.jpg,im2_distractor,./stimuli/demo_stims/baton1_15s.jpg,im2_distractor,0.37,0.25,0,0.35,-0.37,-0.25,-0.37,0.25,0.37,-0.25,0,-0.35,./stimuli/demo_stims/spatula_13s.jpg,./stimuli/demo_stims/baton1_04s.jpg,left,./stimuli/cue_left.png,,,,,,,,,,,,,,,,,,,,,,,,,,,,,,,,,,,,,,,,,237.9936,239.9936,239.9937,240.2438,240.244,241.0604,241.0604,241.0605,241.0605,241.0605,244.0605,244.0606,,0,3,3,2,1,,,,,,,,,,,,,,,,,,,,,,,,,,,,,,,,,
,,151942,2024-10-18_15h43.47.345,WM_Deepgen,2023.2.1,MacIntel,59.88023952,,,,,,,,,,,,,,,,,,,,,,,,,,,,,,,,,,,,245.0607,247.0602,247.0602,247.5605,250.6273,253.6271,[0.30190972222222223],[-0.20686631944444445],[1],[0],[0],[1.8476999998092651],"[""distractor_im_3""]",0,demo,,,253.6272,254.6269,,,,,,img1,0.833333333,valid,img1,2,2,0.5,0.25,0,0,3,0,1,flashing_distractor,0,0,0,0,0,-1,./stimuli/demo_stims/apple_08s.jpg,./stimuli/demo_stims/kale_11s.jpg,./stimuli/demo_stims/bonnet_12s.jpg,./stimuli/demo_stims/kale_11s.jpg,./stimuli/demo_stims/apple_08s.jpg,0.15125,0.01375,0.075625,-0.006875,right,0.33,./stimuli/demo_stims/apple_09s.jpg,im1_distractor,./stimuli/demo_stims/apple_03s.jpg,im1_distractor,./stimuli/demo_stims/kale_12s.jpg,im2_distractor,./stimuli/demo_stims/kale_02s.jpg,im2_distractor,-0.37,0.25,0,-0.35,0.37,0.25,0,0.35,-0.37,-0.25,0.37,-0.25,./stimuli/demo_stims/apple_08s.jpg,./stimuli/demo_stims/kale_11s.jpg,right,./stimuli/cue_right.png,,,,,,,,,,,,,,,,,,,,,,,,,,,,,,,,,,,,,,,,,247.5605,249.5604,249.5605,249.8105,249.8106,250.6272,250.6272,250.6272,250.6272,250.6273,253.6271,253.6272,,0,4,4,4,1,,,,,,,,,,,,,,,,,,,,,,,,,,,,,,,,,
,,151942,2024-10-18_15h43.47.345,WM_Deepgen,2023.2.1,MacIntel,59.88023952,,,,,,,,,,,,,,,,,,,,,,,,,,,,,,,,,,,,,,,,,,,,,,,,,,,,,,,,,,,,,,,,,,,,,,,,,,,,,,,,,,,,,,,,,,,,,,,,,,,,,,,,,,,,,,,,,,,,,,,,,,,,,,,,,,,,,,,,,,,,,,,,,,,,,,,,,,,,,,,,,,,,,,,,,,,,,254.6275,263.4439,y,7.7826,,0,0,0,0,1,,,,,,,,,,,,,,,,,,,,,,,
,,151942,2024-10-18_15h43.47.345,WM_Deepgen,2023.2.1,MacIntel,59.88023952,,,,,,,,,,,,,,,,,,,,,,,,,,,,,,,,,,,,268.3989,270.394,270.3941,270.8935,273.9597,276.9603,[],[],[],[],[],[],[],0,demo,,,276.9605,277.9606,,,,,,img1,0.666666667,valid,img1,2,2,0.5,0.25,0,0,3,0,1,flashing_distractor,0,0,0,0,0,-1,./stimuli/demo_stims/hippopotamus_03s.jpg,./stimuli/demo_stims/chainsaw_16s.jpg,./stimuli/demo_stims/coffee_pot_02s.jpg,./stimuli/demo_stims/chainsaw_16s.jpg,./stimuli/demo_stims/hippopotamus_03s.jpg,0.09625,0.06875,0.048125,-0.034375,right,0.33,./stimuli/demo_stims/hippopotamus_16s.jpg,im1_distractor,./stimuli/demo_stims/hippopotamus_11s.jpg,im1_distractor,./stimuli/demo_stims/chainsaw_08s.jpg,im2_distractor,./stimuli/demo_stims/chainsaw_06s.jpg,im2_distractor,-0.37,-0.25,0.37,-0.25,-0.37,0.25,0,0.35,0.37,0.25,0,-0.35,./stimuli/demo_stims/hippopotamus_03s.jpg,./stimuli/demo_stims/chainsaw_16s.jpg,right,./stimuli/cue_right.png,,,,,,,,,,,,,,,,,,,,,,,,,,,,,,,,,,263.4442,266.3937,y,2.9353,,266.3937,268.3939,270.8937,272.8939,272.8939,273.1436,273.1437,273.9595,273.9596,273.9597,273.9597,273.9597,276.9604,276.9605,,0,0,0,0,1,,,,,,,,,,,,,,,,,,,,,,,,,,,,,,,,,
,,151942,2024-10-18_15h43.47.345,WM_Deepgen,2023.2.1,MacIntel,59.88023952,,,,,,,,,,,,,,,,,,,,,,,,,,,,,,,,,,,,277.9615,279.9593,279.9594,280.4594,283.5274,286.5272,[-0.013940972222222223],[0.29009982638888887],[1],[0],[0],[1.6311000003814797],"[""distractor_mem_stim""]",0,demo,,,286.5274,287.5272,,,,,,img1,0.666666667,valid,img1,2,2,0.5,0.25,0,0,3,0,1,flashing_distractor,0,0,0,0,0,1,./stimuli/demo_stims/spatula_13s.jpg,./stimuli/demo_stims/baton1_04s.jpg,./stimuli/demo_stims/chime_06s.jpg,./stimuli/demo_stims/spatula_13s.jpg,./stimuli/demo_stims/baton1_04s.jpg,0.06875,0.09625,0.034375,-0.048125,left,0.33,./stimuli/demo_stims/spatula_03s.jpg,im1_distractor,./stimuli/demo_stims/spatula_02s.jpg,im1_distractor,./stimuli/demo_stims/baton1_13s.jpg,im2_distractor,./stimuli/demo_stims/baton1_15s.jpg,im2_distractor,0.37,0.25,0,0.35,-0.37,-0.25,-0.37,0.25,0.37,-0.25,0,-0.35,./stimuli/demo_stims/spatula_13s.jpg,./stimuli/demo_stims/baton1_04s.jpg,left,./stimuli/cue_left.png,,,,,,,,,,,,,,,,,,,,,,,,,,,,,,,,,,,,,,,,,280.4595,282.4603,282.4604,282.7107,282.7109,283.5272,283.5273,283.5273,283.5274,283.5274,286.5273,286.5273,,0,1,1,2,1,,,,,,,,,,,,,,,,,,,,,,,,,,,,,,,,,
,,151942,2024-10-18_15h43.47.345,WM_Deepgen,2023.2.1,MacIntel,59.88023952,,,,,,,,,,,,,,,,,,,,,,,,,,,,,,,,,,,,287.528,289.5271,289.5272,290.0272,293.0774,296.0772,[0.0244921875],[-0.34541666666666665],[1],[0],[0],[1.76400000000001],"[""memoranda_stim""]",1,demo,,,296.0774,297.0772,,,,,,img2,0.666666667,valid,img2,2,2,0.5,0.25,0,0,3,0,1,flashing_distractor,0,0,0,0,0,1,./stimuli/demo_stims/earring_01b.jpg,./stimuli/demo_stims/shuffleboard_13s.jpg,./stimuli/demo_stims/spout_05s.jpg,./stimuli/demo_stims/earring_01b.jpg,./stimuli/demo_stims/shuffleboard_13s.jpg,0.09625,0.06875,0.048125,-0.034375,right,0.33,./stimuli/demo_stims/earring_02s.jpg,im1_distractor,./stimuli/demo_stims/earring_11n.jpg,im1_distractor,./stimuli/demo_stims/shuffleboard_01b.jpg,im2_distractor,./stimuli/demo_stims/shuffleboard_07s.jpg,im2_distractor,0,-0.35,0.37,-0.25,-0.37,0.25,0.37,0.25,0,0.35,-0.37,-0.25,./stimuli/demo_stims/shuffleboard_13s.jpg,./stimuli/demo_stims/earring_01b.jpg,right,./stimuli/cue_right.png,,,,,,,,,,,,,,,,,,,,,,,,,,,,,,,,,,,,,,,,,290.0273,292.0266,292.0268,292.276,292.2761,293.0772,293.0773,293.0773,293.0773,293.0773,296.0773,296.0773,,0,2,2,1,1,,,,,,,,,,,,,,,,,,,,,,,,,,,,,,,,,
,,151942,2024-10-18_15h43.47.345,WM_Deepgen,2023.2.1,MacIntel,59.88023952,,,,,,,,,,,,,,,,,,,,,,,,,,,,,,,,,,,,297.078,299.0763,299.0764,299.5771,302.6274,305.6264,[0.019761284722222223],[-0.33759114583333333],[1],[0],[0],[1.698399999618573],"[""distractor_mem_stim""]",0,demo,,,305.6267,306.6263,,,,,,img1,0.833333333,valid,img1,2,2,0.5,0.25,0,0,3,0,1,flashing_distractor,0,0,0,0,0,-1,./stimuli/demo_stims/apple_08s.jpg,./stimuli/demo_stims/kale_11s.jpg,./stimuli/demo_stims/bonnet_12s.jpg,./stimuli/demo_stims/kale_11s.jpg,./stimuli/demo_stims/apple_08s.jpg,0.15125,0.01375,0.075625,-0.006875,right,0.33,./stimuli/demo_stims/apple_09s.jpg,im1_distractor,./stimuli/demo_stims/apple_03s.jpg,im1_distractor,./stimuli/demo_stims/kale_12s.jpg,im2_distractor,./stimuli/demo_stims/kale_02s.jpg,im2_distractor,-0.37,0.25,0,-0.35,0.37,0.25,0,0.35,-0.37,-0.25,0.37,-0.25,./stimuli/demo_stims/apple_08s.jpg,./stimuli/demo_stims/kale_11s.jpg,right,./stimuli/cue_right.png,,,,,,,,,,,,,,,,,,,,,,,,,,,,,,,,,,,,,,,,,299.5772,301.5772,301.5772,301.827,301.827,302.6272,302.6273,302.6273,302.6273,302.6273,305.6266,305.6267,,0,3,3,4,1,,,,,,,,,,,,,,,,,,,,,,,,,,,,,,,,,
,,151942,2024-10-18_15h43.47.345,WM_Deepgen,2023.2.1,MacIntel,59.88023952,,,,,,,,,,,,,,,,,,,,,,,,,,,,,,,,,,,,306.6269,308.6259,308.626,309.126,312.1774,315.1774,[-0.3946484375],[0.14266493055555557],[1],[0],[0],[1.2966000003814315],"[""memoranda_stim""]",1,demo,,,315.1777,316.1773,,,,,,img2,0.833333333,invalid,img1,2,2,0.5,0.25,0,0,3,0,1,flashing_distractor,0,0,0,0,0,-1,./stimuli/demo_stims/lollipop_10s.jpg,./stimuli/demo_stims/man_05s.jpg,./stimuli/demo_stims/coil_02s.jpg,./stimuli/demo_stims/man_05s.jpg,./stimuli/demo_stims/lollipop_10s.jpg,0.01375,0.15125,0.006875,-0.075625,left,0.33,./stimuli/demo_stims/lollipop_06n.jpg,im1_distractor,./stimuli/demo_stims/lollipop_03s.jpg,im1_distractor,./stimuli/demo_stims/man_10s.jpg,im2_distractor,./stimuli/demo_stims/man_02s.jpg,im2_distractor,-0.37,0.25,0,0.35,0,-0.35,-0.37,-0.25,0.37,0.25,0.37,-0.25,./stimuli/demo_stims/lollipop_10s.jpg,./stimuli/demo_stims/man_05s.jpg,right,./stimuli/cue_right.png,,,,,,,,,,,,,,,,,,,,,,,,,,,,,,,,,,,,,,,,,309.126,311.1265,311.1266,311.3769,311.3769,312.1773,312.1774,312.1774,312.1774,312.1774,315.1774,315.1776,,0,4,4,3,1,,,,,,,,,,,,,,,,,,,,,,,,,,,,,,,,,
,,151942,2024-10-18_15h43.47.345,WM_Deepgen,2023.2.1,MacIntel,59.88023952,,,,,,,,,,,,,,,,,,,,,,,,,,,,,,,,,,,,,,,,,,,,,,,,,,,,,,,,,,,,,,,,,,,,,,,,,,,,,,,,,,,,,,,,,,,,,,,,,,,,,,,,,,,,,,,,,,,,,,,,,,,,,,,,,,,,,,,,,,,,,,,,,,,,,,,,,,,,,,,,,,,,,,,,,,,,,316.1776,320.1437,y,2.944,,1,0,1,0,1,,,,,,,,,,,,,,,,,,,,,,,
,,151942,2024-10-18_15h43.47.345,WM_Deepgen,2023.2.1,MacIntel,59.88023952,,,,,,,,,,,,,,,,,,,,,,,,,,,,,,,,,,,,322.6631,324.6594,324.6594,325.1603,328.2273,331.2271,[-0.0991796875],[0.30355902777777777],[1],[0],[0],[2.530999999999949],"[""distractor_mem_stim""]",0,demo,,,331.2273,332.227,,,,,,img2,0.833333333,invalid,img1,2,2,0.5,0.25,0,0,3,0,1,flashing_distractor,0,0,0,0,0,-1,./stimuli/demo_stims/lollipop_10s.jpg,./stimuli/demo_stims/man_05s.jpg,./stimuli/demo_stims/coil_02s.jpg,./stimuli/demo_stims/man_05s.jpg,./stimuli/demo_stims/lollipop_10s.jpg,0.01375,0.15125,0.006875,-0.075625,left,0.33,./stimuli/demo_stims/lollipop_06n.jpg,im1_distractor,./stimuli/demo_stims/lollipop_03s.jpg,im1_distractor,./stimuli/demo_stims/man_10s.jpg,im2_distractor,./stimuli/demo_stims/man_02s.jpg,im2_distractor,-0.37,0.25,0,0.35,0,-0.35,-0.37,-0.25,0.37,0.25,0.37,-0.25,./stimuli/demo_stims/lollipop_10s.jpg,./stimuli/demo_stims/man_05s.jpg,right,./stimuli/cue_right.png,,,,,,,,,,,,,,,,,,,,,,,,,,,,,,,,,,320.144,320.6605,y,0.512,,320.6605,322.66,325.1604,327.1593,327.1594,327.4102,327.4102,328.2271,328.2273,328.2273,328.2273,328.2273,331.2272,331.2273,,0,0,0,3,1,,,,,,,,,,,,,,,,,,,,,,,,,,,,,,,,,
,,151942,2024-10-18_15h43.47.345,WM_Deepgen,2023.2.1,MacIntel,59.88023952,,,,,,,,,,,,,,,,,,,,,,,,,,,,,,,,,,,,332.2275,334.2274,334.2275,334.7269,337.7941,340.7938,[-0.4207638888888889],[0.217421875],[1],[0],[0],[1.3981000003814188],"[""distractor_im_0""]",0,demo,,,340.7941,341.7937,,,,,,img1,0.666666667,valid,img1,2,2,0.5,0.25,0,0,3,0,1,flashing_distractor,0,0,0,0,0,-1,./stimuli/demo_stims/hippopotamus_03s.jpg,./stimuli/demo_stims/chainsaw_16s.jpg,./stimuli/demo_stims/coffee_pot_02s.jpg,./stimuli/demo_stims/chainsaw_16s.jpg,./stimuli/demo_stims/hippopotamus_03s.jpg,0.09625,0.06875,0.048125,-0.034375,right,0.33,./stimuli/demo_stims/hippopotamus_16s.jpg,im1_distractor,./stimuli/demo_stims/hippopotamus_11s.jpg,im1_distractor,./stimuli/demo_stims/chainsaw_08s.jpg,im2_distractor,./stimuli/demo_stims/chainsaw_06s.jpg,im2_distractor,-0.37,-0.25,0.37,-0.25,-0.37,0.25,0,0.35,0.37,0.25,0,-0.35,./stimuli/demo_stims/hippopotamus_03s.jpg,./stimuli/demo_stims/chainsaw_16s.jpg,right,./stimuli/cue_right.png,,,,,,,,,,,,,,,,,,,,,,,,,,,,,,,,,,,,,,,,,334.727,336.7262,336.7262,336.9771,336.9772,337.7939,337.794,337.794,337.7941,337.7941,340.7939,340.794,,0,1,1,0,1,,,,,,,,,,,,,,,,,,,,,,,,,,,,,,,,,
,,151942,2024-10-18_15h43.47.345,WM_Deepgen,2023.2.1,MacIntel,59.88023952,,,,,,,,,,,,,,,,,,,,,,,,,,,,,,,,,,,,341.7942,343.7939,343.7939,344.2936,347.3599,350.3593,[-0.4207638888888889],[0.217421875],[1],[0],[0],[2.2474999999999454],"[""memoranda_stim""]",1,demo,,,350.3596,351.3604,,,,,,img1,0.833333333,valid,img1,2,2,0.5,0.25,0,0,3,0,1,flashing_distractor,0,0,0,0,0,-1,./stimuli/demo_stims/apple_08s.jpg,./stimuli/demo_stims/kale_11s.jpg,./stimuli/demo_stims/bonnet_12s.jpg,./stimuli/demo_stims/kale_11s.jpg,./stimuli/demo_stims/apple_08s.jpg,0.15125,0.01375,0.075625,-0.006875,right,0.33,./stimuli/demo_stims/apple_09s.jpg,im1_distractor,./stimuli/demo_stims/apple_03s.jpg,im1_distractor,./stimuli/demo_stims/kale_12s.jpg,im2_distractor,./stimuli/demo_stims/kale_02s.jpg,im2_distractor,-0.37,0.25,0,-0.35,0.37,0.25,0,0.35,-0.37,-0.25,0.37,-0.25,./stimuli/demo_stims/apple_08s.jpg,./stimuli/demo_stims/kale_11s.jpg,right,./stimuli/cue_right.png,,,,,,,,,,,,,,,,,,,,,,,,,,,,,,,,,,,,,,,,,344.2937,346.2938,346.2939,346.5438,346.5438,347.3598,347.3598,347.3599,347.3599,347.3599,350.3595,350.3596,,0,2,2,4,1,,,,,,,,,,,,,,,,,,,,,,,,,,,,,,,,,
,,151942,2024-10-18_15h43.47.345,WM_Deepgen,2023.2.1,MacIntel,59.88023952,,,,,,,,,,,,,,,,,,,,,,,,,,,,,,,,,,,,351.361,353.3595,353.3596,353.8605,356.9262,359.9276,[0.08584201388888889],[0.2600217013888889],[1],[0],[0],[2.632199999809245],"[""distractor_mem_stim""]",0,demo,,,359.9278,360.9272,,,,,,img1,0.666666667,valid,img1,2,2,0.5,0.25,0,0,3,0,1,flashing_distractor,0,0,0,0,0,1,./stimuli/demo_stims/spatula_13s.jpg,./stimuli/demo_stims/baton1_04s.jpg,./stimuli/demo_stims/chime_06s.jpg,./stimuli/demo_stims/spatula_13s.jpg,./stimuli/demo_stims/baton1_04s.jpg,0.06875,0.09625,0.034375,-0.048125,left,0.33,./stimuli/demo_stims/spatula_03s.jpg,im1_distractor,./stimuli/demo_stims/spatula_02s.jpg,im1_distractor,./stimuli/demo_stims/baton1_13s.jpg,im2_distractor,./stimuli/demo_stims/baton1_15s.jpg,im2_distractor,0.37,0.25,0,0.35,-0.37,-0.25,-0.37,0.25,0.37,-0.25,0,-0.35,./stimuli/demo_stims/spatula_13s.jpg,./stimuli/demo_stims/baton1_04s.jpg,left,./stimuli/cue_left.png,,,,,,,,,,,,,,,,,,,,,,,,,,,,,,,,,,,,,,,,,353.8605,355.8608,355.8609,356.1106,356.1106,356.9261,356.9261,356.9261,356.9262,356.9262,359.9277,359.9278,,0,3,3,2,1,,,,,,,,,,,,,,,,,,,,,,,,,,,,,,,,,
,,151942,2024-10-18_15h43.47.345,WM_Deepgen,2023.2.1,MacIntel,59.88023952,,,,,,,,,,,,,,,,,,,,,,,,,,,,,,,,,,,,360.9279,362.927,362.927,363.4273,366.494,369.4942,[],[],[],[],[],[],[],0,demo,,,369.4945,370.4943,,,,,,img2,0.666666667,valid,img2,2,2,0.5,0.25,0,0,3,0,1,flashing_distractor,0,0,0,0,0,1,./stimuli/demo_stims/earring_01b.jpg,./stimuli/demo_stims/shuffleboard_13s.jpg,./stimuli/demo_stims/spout_05s.jpg,./stimuli/demo_stims/earring_01b.jpg,./stimuli/demo_stims/shuffleboard_13s.jpg,0.09625,0.06875,0.048125,-0.034375,right,0.33,./stimuli/demo_stims/earring_02s.jpg,im1_distractor,./stimuli/demo_stims/earring_11n.jpg,im1_distractor,./stimuli/demo_stims/shuffleboard_01b.jpg,im2_distractor,./stimuli/demo_stims/shuffleboard_07s.jpg,im2_distractor,0,-0.35,0.37,-0.25,-0.37,0.25,0.37,0.25,0,0.35,-0.37,-0.25,./stimuli/demo_stims/shuffleboard_13s.jpg,./stimuli/demo_stims/earring_01b.jpg,right,./stimuli/cue_right.png,,,,,,,,,,,,,,,,,,,,,,,,,,,,,,,,,,,,,,,,,363.4273,365.4271,365.4272,365.6772,365.6772,366.4939,366.494,366.494,366.494,366.494,369.4944,369.4945,,0,4,4,1,1,,,,,,,,,,,,,,,,,,,,,,,,,,,,,,,,,
,,151942,2024-10-18_15h43.47.345,WM_Deepgen,2023.2.1,MacIntel,59.88023952,,,,,,,,,,,,,,,,,,,,,,,,,,,,,,,,,,,,,,,,,,,,,,,,,,,,,,,,,,,,,,,,,,,,,,,,,,,,,,,,,,,,,,,,,,,,,,,,,,,,,,,,,,,,,,,,,,,,,,,,,,,,,,,,,,,,,,,,,,,,,,,,,,,,,,,,,,,,,,,,,,,,,,,,,,,,,370.4947,433.7922,y,62.2757,,2,0,2,0,1,,,,,,,,,,,,,,,,,,,,,,,
,,151942,2024-10-18_15h43.47.345,WM_Deepgen,2023.2.1,MacIntel,59.88023952,,,,,,,,,,,,,,,,,,,,,,,,,,,,,,,,,,,,436.8763,438.8734,438.8735,439.3743,442.4419,445.4411,"[0.5044368677745664,0.41635996206647397]","[0.30235052384393063,0.3165247922687861]","[1,1]","[0,0]","[0,0]","[1.6498999996183557,2.0496999998092633]","[""memoranda_stim""]",1,demo,,,445.4415,446.441,,,,,,img1,0.666666667,valid,img1,2,2,0.5,0.25,0,0,3,0,1,flashing_distractor,0,0,0,0,0,1,./stimuli/demo_stims/spatula_13s.jpg,./stimuli/demo_stims/baton1_04s.jpg,./stimuli/demo_stims/chime_06s.jpg,./stimuli/demo_stims/spatula_13s.jpg,./stimuli/demo_stims/baton1_04s.jpg,0.06875,0.09625,0.034375,-0.048125,left,0.33,./stimuli/demo_stims/spatula_03s.jpg,im1_distractor,./stimuli/demo_stims/spatula_02s.jpg,im1_distractor,./stimuli/demo_stims/baton1_13s.jpg,im2_distractor,./stimuli/demo_stims/baton1_15s.jpg,im2_distractor,0.37,0.25,0,0.35,-0.37,-0.25,-0.37,0.25,0.37,-0.25,0,-0.35,./stimuli/demo_stims/spatula_13s.jpg,./stimuli/demo_stims/baton1_04s.jpg,left,./stimuli/cue_left.png,,,,,,,,,,,,,,,,,,,,,,,,,,,,,,,,,,433.7941,434.8742,y,1.061,,434.8743,436.873,439.3745,441.3733,441.3735,441.6253,441.6254,442.4415,442.4416,442.4417,442.4418,442.4419,445.4412,445.4415,,0,0,0,2,1,,,,,,,,,,,,,,,,,,,,,,,,,,,,,,,,,
,,151942,2024-10-18_15h43.47.345,WM_Deepgen,2023.2.1,MacIntel,59.88023952,,,,,,,,,,,,,,,,,,,,,,,,,,,,,,,,,,,,446.4419,448.4411,448.4412,448.941,451.9918,454.9911,[0.05703576589595376],[0.34643695809248554],[1],[0],[0],[1.79490000057217],"[""distractor_mem_stim""]",0,demo,,,454.9915,455.991,,,,,,img2,0.833333333,invalid,img1,2,2,0.5,0.25,0,0,3,0,1,flashing_distractor,0,0,0,0,0,-1,./stimuli/demo_stims/lollipop_10s.jpg,./stimuli/demo_stims/man_05s.jpg,./stimuli/demo_stims/coil_02s.jpg,./stimuli/demo_stims/man_05s.jpg,./stimuli/demo_stims/lollipop_10s.jpg,0.01375,0.15125,0.006875,-0.075625,left,0.33,./stimuli/demo_stims/lollipop_06n.jpg,im1_distractor,./stimuli/demo_stims/lollipop_03s.jpg,im1_distractor,./stimuli/demo_stims/man_10s.jpg,im2_distractor,./stimuli/demo_stims/man_02s.jpg,im2_distractor,-0.37,0.25,0,0.35,0,-0.35,-0.37,-0.25,0.37,0.25,0.37,-0.25,./stimuli/demo_stims/lollipop_10s.jpg,./stimuli/demo_stims/man_05s.jpg,right,./stimuli/cue_right.png,,,,,,,,,,,,,,,,,,,,,,,,,,,,,,,,,,,,,,,,,448.9411,450.9412,450.9413,451.1904,451.1905,451.9915,451.9916,451.9917,451.9917,451.9917,454.9913,454.9914,,0,1,1,3,1,,,,,,,,,,,,,,,,,,,,,,,,,,,,,,,,,
,,151942,2024-10-18_15h43.47.345,WM_Deepgen,2023.2.1,MacIntel,59.88023952,,,,,,,,,,,,,,,,,,,,,,,,,,,,,,,,,,,,455.9919,457.9911,457.9912,458.491,461.5584,464.5576,[0.30865584356936415],[-0.2592237174855491],[1],[0],[0],[1.4291000003813679],"[""distractor_mem_stim""]",0,demo,,,464.558,465.5576,,,,,,img2,0.666666667,valid,img2,2,2,0.5,0.25,0,0,3,0,1,flashing_distractor,0,0,0,0,0,1,./stimuli/demo_stims/earring_01b.jpg,./stimuli/demo_stims/shuffleboard_13s.jpg,./stimuli/demo_stims/spout_05s.jpg,./stimuli/demo_stims/earring_01b.jpg,./stimuli/demo_stims/shuffleboard_13s.jpg,0.09625,0.06875,0.048125,-0.034375,right,0.33,./stimuli/demo_stims/earring_02s.jpg,im1_distractor,./stimuli/demo_stims/earring_11n.jpg,im1_distractor,./stimuli/demo_stims/shuffleboard_01b.jpg,im2_distractor,./stimuli/demo_stims/shuffleboard_07s.jpg,im2_distractor,0,-0.35,0.37,-0.25,-0.37,0.25,0.37,0.25,0,0.35,-0.37,-0.25,./stimuli/demo_stims/shuffleboard_13s.jpg,./stimuli/demo_stims/earring_01b.jpg,right,./stimuli/cue_right.png,,,,,,,,,,,,,,,,,,,,,,,,,,,,,,,,,,,,,,,,,458.4912,460.4909,460.4909,460.7412,460.7413,461.5582,461.5583,461.5584,461.5584,461.5584,464.5579,464.558,,0,2,2,1,1,,,,,,,,,,,,,,,,,,,,,,,,,,,,,,,,,
,,151942,2024-10-18_15h43.47.345,WM_Deepgen,2023.2.1,MacIntel,59.88023952,,,,,,,,,,,,,,,,,,,,,,,,,,,,,,,,,,,,465.5583,467.5578,467.558,468.0577,471.125,474.1245,[],[],[],[],[],[],[],0,demo,,,474.1248,475.1244,,,,,,img1,0.666666667,valid,img1,2,2,0.5,0.25,0,0,3,0,1,flashing_distractor,0,0,0,0,0,-1,./stimuli/demo_stims/hippopotamus_03s.jpg,./stimuli/demo_stims/chainsaw_16s.jpg,./stimuli/demo_stims/coffee_pot_02s.jpg,./stimuli/demo_stims/chainsaw_16s.jpg,./stimuli/demo_stims/hippopotamus_03s.jpg,0.09625,0.06875,0.048125,-0.034375,right,0.33,./stimuli/demo_stims/hippopotamus_16s.jpg,im1_distractor,./stimuli/demo_stims/hippopotamus_11s.jpg,im1_distractor,./stimuli/demo_stims/chainsaw_08s.jpg,im2_distractor,./stimuli/demo_stims/chainsaw_06s.jpg,im2_distractor,-0.37,-0.25,0.37,-0.25,-0.37,0.25,0,0.35,0.37,0.25,0,-0.35,./stimuli/demo_stims/hippopotamus_03s.jpg,./stimuli/demo_stims/chainsaw_16s.jpg,right,./stimuli/cue_right.png,,,,,,,,,,,,,,,,,,,,,,,,,,,,,,,,,,,,,,,,,468.0577,470.0572,470.0572,470.3079,470.308,471.1248,471.1248,471.1249,471.1249,471.125,474.1248,474.1248,,0,3,3,0,1,,,,,,,,,,,,,,,,,,,,,,,,,,,,,,,,,
,,151942,2024-10-18_15h43.47.345,WM_Deepgen,2023.2.1,MacIntel,59.88023952,,,,,,,,,,,,,,,,,,,,,,,,,,,,,,,,,,,,475.1251,477.1244,477.1245,477.6244,480.6918,483.6912,[-0.26793939667630057],[0.2895987626445087],[1],[0],[0],[2.61200000000008],"[""memoranda_stim""]",1,demo,,,483.6915,484.691,,,,,,img1,0.833333333,valid,img1,2,2,0.5,0.25,0,0,3,0,1,flashing_distractor,0,0,0,0,0,-1,./stimuli/demo_stims/apple_08s.jpg,./stimuli/demo_stims/kale_11s.jpg,./stimuli/demo_stims/bonnet_12s.jpg,./stimuli/demo_stims/kale_11s.jpg,./stimuli/demo_stims/apple_08s.jpg,0.15125,0.01375,0.075625,-0.006875,right,0.33,./stimuli/demo_stims/apple_09s.jpg,im1_distractor,./stimuli/demo_stims/apple_03s.jpg,im1_distractor,./stimuli/demo_stims/kale_12s.jpg,im2_distractor,./stimuli/demo_stims/kale_02s.jpg,im2_distractor,-0.37,0.25,0,-0.35,0.37,0.25,0,0.35,-0.37,-0.25,0.37,-0.25,./stimuli/demo_stims/apple_08s.jpg,./stimuli/demo_stims/kale_11s.jpg,right,./stimuli/cue_right.png,,,,,,,,,,,,,,,,,,,,,,,,,,,,,,,,,,,,,,,,,477.6244,479.6244,479.6244,479.8744,479.8745,480.6915,480.6916,480.6916,480.6916,480.6917,483.6915,483.6915,,0,4,4,4,1,,,,,,,,,,,,,,,,,,,,,,,,,,,,,,,,,
,,151942,2024-10-18_15h43.47.345,WM_Deepgen,2023.2.1,MacIntel,59.88023952,,,,,,,,,,,,,,,,,,,,,,,,,,,,,,,,,,,,,,,,,,,,,,,,,,demo,,,,,,,,,,,,,,,,,,,,,,,,,,,,,,,,,,,,,,,,,,,,,,,,,,,,,,,,,,,,,,,,,,,,,,,,,,,,,,,,,,,,,,,,,,,,,,,,,,,,,,,,,,,,,,,,,,,,,,,,,,,484.6913,,,,,3,0,3,0,1,0,0,0,0,1,0,0,0,0,6,1,10,./resources/taskPhases_6.csv,taskPhases_6,0,0,0,0,1,2,./demo.csv,"Now you will do a few demo trials to get accustomed to the cues.

Press 'y' to continue.",4