setup_js.started,setup_js.stopped,participant,date,expName,psychopyVersion,OS,frameRate,Instructions1.started,Instructions1.stopped,key_resp_2.keys,key_resp_2.rt,key_resp_2.duration,Instructions2.started,Instructions2.stopped,key_resp_3.keys,key_resp_3.rt,key_resp_3.duration,Instructions3.started,Instructions3.stopped,key_resp_4.keys,key_resp_4.rt,key_resp_4.duration,Instructions4.started,Instructions4.stopped,key_resp_5.keys,key_resp_5.rt,key_resp_5.duration,Instructions5.started,Instructions5.stopped,key_resp_10.keys,key_resp_10.rt,key_resp_10.duration,Instructions6b.started,Instructions6b.stopped,key_resp_16.keys,key_resp_16.rt,key_resp_16.duration,Instructions6.started,Instructions6.stopped,key_resp_13.keys,key_resp_13.rt,key_resp_13.duration,memoranda.started,memoranda.stopped,isi1.started,isi1.stopped,probe.started,probe.stopped,mouse.x,mouse.y,mouse.leftButton,mouse.midButton,mouse.rightButton,mouse.time,mouse.clicked_name,resp_correct,taskPhase,correct_ans.started,correct_ans.stopped,ITI.started,ITI.stopped,prac_trials.thisRepN,prac_trials.thisTrialN,prac_trials.thisN,prac_trials.thisIndex,prac_trials.ran,attend,reliability,validity,test_item,reliability_time,cue_time,delay_1_time,delay_2_time,ping_time,delay_3_time,probe_time,noise_mask_time,iti_dur,pilot_info,ping_im_flash1,ping_im_flash2,ping_im_flash3,ping_im_flash4,ping_im_flash5,stim_side,img1,img2,ping_img,left_img,right_img,right_cue_length,left_cue_length,right_cue_offset,left_cue_offset,attend_direction,rec_length,distractor_0,distractor_0_type,distractor_1,distractor_1_type,distractor_2,distractor_2_type,distractor_3,distractor_3_type,mem_x,mem_y,dismem_x,dismem_y,dis0_x,dis0_y,dis1_x,dis1_y,dis2_x,dis2_y,dis3_x,dis3_y,mem_stim,distractor_stim,probe_direction,cue_img,repeat_code.started,repeat_code.stopped,key_resp_14.keys,repeat_prac.thisRepN,repeat_prac.thisTrialN,repeat_prac.thisN,repeat_prac.thisIndex,repeat_prac.ran,Instructions7.started,Instructions7.stopped,key_resp_15.keys,key_resp_15.rt,key_resp_15.duration,Instructions8.started,Instructions8.stopped,key_resp_6.keys,key_resp_6.rt,key_resp_6.duration,key_resp_7.keys,key_resp_7.rt,key_resp_7.duration,Instructions9.started,Instructions9.stopped,key_resp_8.keys,key_resp_8.rt,key_resp_8.duration,Instructions10.started,Instructions10.stopped,key_resp_9.keys,key_resp_9.rt,key_resp_9.duration,intro_txt.started,intro_txt.stopped,key_resp_11.keys,key_resp_11.rt,key_resp_11.duration,initial_wait.started,initial_wait.stopped,reliability_cue.started,reliability_cue.stopped,isi2.started,isi2.stopped,ping.started,ping.stopped,noise_mask.started,noise_mask.stopped,isi3.started,isi3.stopped,block_break.started,block_break.stopped,key_resp.keys,loop_trials.thisRepN,loop_trials.thisTrialN,loop_trials.thisN,loop_trials.thisIndex,loop_trials.ran,repeat_practice_code.started,repeat_practice_code.stopped,key_resp_12.keys,repeat_practice.thisRepN,repeat_practice.thisTrialN,repeat_practice.thisN,repeat_practice.thisIndex,repeat_practice.ran,demo_prac_task.thisRepN,demo_prac_task.thisTrialN,demo_prac_task.thisN,demo_prac_task.thisIndex,demo_prac_task.ran,condsFile,introTXT,trials.thisRepN,trials.thisTrialN,trials.thisN,trials.thisIndex,trials.ran,trials.order,trials_3.thisRepN,trials_3.thisTrialN,trials_3.thisN,trials_3.thisIndex,trials_3.ran,trials_3.order,taskPhases,conditions_choice,demo_prac_task.order,repeat_practice.order
0.0002,0.0003,165808,2024-10-21_13h24.30.168,WM_Deepgen,2023.2.1,Win32,59.88023952,,,,,,,,,,,,,,,,,,,,,,,,,,,,,,,,,,,,,,,,,,,,,,,,,,,,,,,,,,,,,,,,,,,,,,,,,,,,,,,,,,,,,,,,,,,,,,,,,,,,,,,,,,,,,,,,,,,,,,,,,,,,,,,,,,,,,,,,,,,,,,,,,,,,,,,,,,,,,,,,,,,,,,,,,,,,,,,,,,,,,,,,,,,,,,,,,,,,,,,,,
,,165808,2024-10-21_13h24.30.168,WM_Deepgen,2023.2.1,Win32,59.88023952,0.0004,5.1902,y,4.1622,,,,,,,,,,,,,,,,,,,,,,,,,,,,,,,,,,,,,,,,,,,,,,,,,,,,,,,,,,,,,,,,,,,,,,,,,,,,,,,,,,,,,,,,,,,,,,,,,,,,,,,,,,,,,,,,,,,,,,,,,,,,,,,,,,,,,,,,,,,,,,,,,,,,,,,,,,,,,,,,,,,,,,,,,,,,,,,,,,,,,,,,,,,,,,,,,,,,,
,,165808,2024-10-21_13h24.30.168,WM_Deepgen,2023.2.1,Win32,59.88023952,,,,,,5.1922,13.5562,y,7.3346,,13.5563,18.4228,y,3.8337,,18.423,28.6236,y,9.1676,,28.6237,50.2703,y,20.6092,,50.2706,62.4073,y,11.1166,,62.4095,69.8757,y,6.4345,,69.884,71.8873,71.8873,72.3869,72.3873,77.3868,[0.04814819053367332],[-0.2935185609040437],[1],[0],[0],[4.55849999999964],"[""memoranda_stim""]",1,intro,77.3871,78.3867,78.3867,79.3867,0,0,0,3,1,img1,0.666666667,valid,img1,0,2,0.5,0.25,0,0,5,0,1,flashing_distractor,0.2,0.2,0.2,0.2,0.2,-1,./stimuli/demo_stims/gavel_03s.jpg,./stimuli/demo_stims/cat_05s.jpg,./stimuli/demo_stims/scraper_12s.jpg,./stimuli/demo_stims/cat_05s.jpg,./stimuli/demo_stims/gavel_03s.jpg,0.09625,0.06875,0.048125,-0.034375,right,0.33,./stimuli/demo_stims/gavel_08s.jpg,im1_distractor,./stimuli/demo_stims/gavel_07s.jpg,im1_distractor,./stimuli/demo_stims/cat_08s.jpg,im2_distractor,./stimuli/demo_stims/cat_12s.jpg,im2_distractor,0,-0.35,0,0.35,0.37,0.25,0.37,-0.25,-0.37,-0.25,-0.37,0.25,./stimuli/demo_stims/gavel_03s.jpg,./stimuli/demo_stims/cat_05s.jpg,right,./stimuli/cue_right.png,,,,,,,,,,,,,,,,,,,,,,,,,,,,,,,,,,,,,,,,,,,,,,,,,,,,,,,,,,,,,,,,,,,,,,,,,,,,,,,,,,,,,,,
,,165808,2024-10-21_13h24.30.168,WM_Deepgen,2023.2.1,Win32,59.88023952,,,,,,,,,,,,,,,,,,,,,,,,,,,,,,,,,,,,79.3874,81.3868,81.3869,81.8868,81.8868,86.8871,[-0.0749999858714916],[-0.4185185609040437],[1],[0],[0],[1.7135000000002947],"[""memoranda_stim""]",1,intro,86.8872,87.887,87.887,88.887,0,1,1,2,1,img2,0.833333333,valid,img2,0,2,0.5,0.25,0,0,5,0,1,flashing_distractor,0.2,0.2,0.2,0.2,0.2,-1,./stimuli/demo_stims/toilet_paper_10s.jpg,./stimuli/demo_stims/hatchet_01b.jpg,./stimuli/demo_stims/marshmallow_04s.jpg,./stimuli/demo_stims/hatchet_01b.jpg,./stimuli/demo_stims/toilet_paper_10s.jpg,0.01375,0.15125,0.006875,-0.075625,left,0.33,./stimuli/demo_stims/toilet_paper_18s.jpg,im1_distractor,./stimuli/demo_stims/toilet_paper_03s.jpg,im1_distractor,./stimuli/demo_stims/hatchet_08s.jpg,im2_distractor,./stimuli/demo_stims/hatchet_20s.jpg,im2_distractor,0,-0.35,0.37,-0.25,0.37,0.25,-0.37,0.25,-0.37,-0.25,0,0.35,./stimuli/demo_stims/hatchet_01b.jpg,./stimuli/demo_stims/toilet_paper_10s.jpg,left,./stimuli/cue_left.png,,,,,,,,,,,,,,,,,,,,,,,,,,,,,,,,,,,,,,,,,,,,,,,,,,,,,,,,,,,,,,,,,,,,,,,,,,,,,,,,,,,,,,,
,,165808,2024-10-21_13h24.30.168,WM_Deepgen,2023.2.1,Win32,59.88023952,,,,,,,,,,,,,,,,,,,,,,,,,,,,,,,,,,,,88.8876,90.887,90.887,91.3871,91.3871,96.3873,[-0.4037036895751953],[0.18703704410129124],[1],[0],[0],[1.463599999905],"[""memoranda_stim""]",1,intro,96.3875,97.3874,97.3874,98.3873,0,2,2,4,1,img1,0.666666667,valid,img1,0,2,0.5,0.25,0,0,5,0,1,flashing_distractor,0.2,0.2,0.2,0.2,0.2,1,./stimuli/demo_stims/bathmat_03s.jpg,./stimuli/demo_stims/paper_07s.jpg,./stimuli/demo_stims/pocket_08s.jpg,./stimuli/demo_stims/bathmat_03s.jpg,./stimuli/demo_stims/paper_07s.jpg,0.06875,0.09625,0.034375,-0.048125,left,0.33,./stimuli/demo_stims/bathmat_08s.jpg,im1_distractor,./stimuli/demo_stims/bathmat_04s.jpg,im1_distractor,./stimuli/demo_stims/paper_12s.jpg,im2_distractor,./stimuli/demo_stims/paper_08s.jpg,im2_distractor,-0.37,0.25,0.37,-0.25,0,-0.35,0,0.35,0.37,0.25,-0.37,-0.25,./stimuli/demo_stims/bathmat_03s.jpg,./stimuli/demo_stims/paper_07s.jpg,left,./stimuli/cue_left.png,,,,,,,,,,,,,,,,,,,,,,,,,,,,,,,,,,,,,,,,,,,,,,,,,,,,,,,,,,,,,,,,,,,,,,,,,,,,,,,,,,,,,,,
,,165808,2024-10-21_13h24.30.168,WM_Deepgen,2023.2.1,Win32,59.88023952,,,,,,,,,,,,,,,,,,,,,,,,,,,,,,,,,,,,98.388,100.3874,100.3874,100.8875,100.8876,105.8879,[0.2759259541829427],[0.30925925572713214],[1],[0],[0],[1.9629000000954875],"[""memoranda_stim""]",1,intro,105.888,106.8877,106.8877,107.8875,0,3,3,0,1,img1,0.666666667,valid,img1,0,2,0.5,0.25,0,0,5,0,1,flashing_distractor,0.2,0.2,0.2,0.2,0.2,1,./stimuli/demo_stims/tricycle_12s.jpg,./stimuli/demo_stims/scarf_07s.jpg,./stimuli/demo_stims/hearse_02s.jpg,./stimuli/demo_stims/tricycle_12s.jpg,./stimuli/demo_stims/scarf_07s.jpg,0.06875,0.09625,0.034375,-0.048125,left,0.33,./stimuli/demo_stims/tricycle_07s.jpg,im1_distractor,./stimuli/demo_stims/tricycle_11s.jpg,im1_distractor,./stimuli/demo_stims/scarf_06s.jpg,im2_distractor,./stimuli/demo_stims/scarf_04s.jpg,im2_distractor,0.37,0.25,0,-0.35,0.37,-0.25,-0.37,-0.25,0,0.35,-0.37,0.25,./stimuli/demo_stims/tricycle_12s.jpg,./stimuli/demo_stims/scarf_07s.jpg,left,./stimuli/cue_left.png,,,,,,,,,,,,,,,,,,,,,,,,,,,,,,,,,,,,,,,,,,,,,,,,,,,,,,,,,,,,,,,,,,,,,,,,,,,,,,,,,,,,,,,
,,165808,2024-10-21_13h24.30.168,WM_Deepgen,2023.2.1,Win32,59.88023952,,,,,,,,,,,,,,,,,,,,,,,,,,,,,,,,,,,,107.8882,109.8878,109.8878,110.3877,110.3878,115.3885,[0.0027778060347945603],[-0.38518517105667677],[1],[0],[0],[1.9470000000001164],"[""memoranda_stim""]",1,intro,115.3888,116.3881,116.3881,117.3882,0,4,4,1,1,img1,0.666666667,invalid,img2,0,2,0.5,0.25,0,0,5,0,1,flashing_distractor,0.2,0.2,0.2,0.2,0.2,1,./stimuli/demo_stims/fire_alarm_01b.jpg,./stimuli/demo_stims/gorilla_02s.jpg,./stimuli/demo_stims/barbell_08s.jpg,./stimuli/demo_stims/fire_alarm_01b.jpg,./stimuli/demo_stims/gorilla_02s.jpg,0.06875,0.09625,0.034375,-0.048125,left,0.33,./stimuli/demo_stims/fire_alarm_20s.jpg,im1_distractor,./stimuli/demo_stims/fire_alarm_07s.jpg,im1_distractor,./stimuli/demo_stims/gorilla_21s.jpg,im2_distractor,./stimuli/demo_stims/gorilla_12s.jpg,im2_distractor,0,-0.35,0.37,-0.25,0,0.35,-0.37,-0.25,0.37,0.25,-0.37,0.25,./stimuli/demo_stims/gorilla_02s.jpg,./stimuli/demo_stims/fire_alarm_01b.jpg,right,./stimuli/cue_right.png,,,,,,,,,,,,,,,,,,,,,,,,,,,,,,,,,,,,,,,,,,,,,,,,,,,,,,,,,,,,,,,,,,,,,,,,,,,,,,,,,,,,,,,
,,165808,2024-10-21_13h24.30.168,WM_Deepgen,2023.2.1,Win32,59.88023952,,,,,,,,,,,,,,,,,,,,,,,,,,,,,,,,,,,,,,,,,,,,,,,,,,,,,,,,,,,,,,,,,,,,,,,,,,,,,,,,,,,,,,,,,,,,,,,,,,,,,,,,,,,,,,,,,,,117.3888,117.391,,0,0,0,0,1,,,,,,,,,,,,,,,,,,,,,,,,,,,,,,,,,,,,,,,,,,,,,,,,,,,,,,,,,,,,,,,,,,,,,,,,,,,,,,,
,,165808,2024-10-21_13h24.30.168,WM_Deepgen,2023.2.1,Win32,59.88023952,,,,,,,,,,,,,,,,,,,,,,,,,,,,,,,,,,,,153.5292,155.5229,155.523,156.0228,159.092,162.0898,[-0.3472222222222222],[0.17222220809371383],[1],[0],[0],[1.810799999952451],"[""memoranda_stim""]",1,demo,,,162.0916,163.0897,,,,,,img1,0.833333333,valid,img1,2,2,0.5,0.25,0,0,3,0,1,flashing_distractor,0,0,0,0,0,-1,./stimuli/demo_stims/apple_08s.jpg,./stimuli/demo_stims/kale_11s.jpg,./stimuli/demo_stims/bonnet_12s.jpg,./stimuli/demo_stims/kale_11s.jpg,./stimuli/demo_stims/apple_08s.jpg,0.15125,0.01375,0.075625,-0.006875,right,0.33,./stimuli/demo_stims/apple_09s.jpg,im1_distractor,./stimuli/demo_stims/apple_03s.jpg,im1_distractor,./stimuli/demo_stims/kale_12s.jpg,im2_distractor,./stimuli/demo_stims/kale_02s.jpg,im2_distractor,-0.37,0.25,0,-0.35,0.37,0.25,0,0.35,-0.37,-0.25,0.37,-0.25,./stimuli/demo_stims/apple_08s.jpg,./stimuli/demo_stims/kale_11s.jpg,right,./stimuli/cue_right.png,,,,,,,,,117.3912,128.6058,y,10.1923,,128.6061,134.3222,y,5.6936,,y,4.6816,,134.3224,144.7563,y,9.4006,,144.7565,147.5396,y,1.7516,,147.5435,151.5229,y,3.965,,151.5232,153.5233,156.0231,158.023,158.0233,158.2731,158.2733,159.09,159.0901,159.0905,159.0906,159.092,162.09,162.0916,,0,0,0,4,1,,,,,,,,,,,,,,,,,,,,,,,,,,,,,,,
,,165808,2024-10-21_13h24.30.168,WM_Deepgen,2023.2.1,Win32,59.88023952,,,,,,,,,,,,,,,,,,,,,,,,,,,,,,,,,,,,163.0901,165.0898,165.0898,165.5897,168.6568,171.6566,[0.125],[0.4074074074074074],[1],[0],[0],[2.7977000000478256],[],0,demo,,,171.6569,172.6565,,,,,,img1,0.666666667,valid,img1,2,2,0.5,0.25,0,0,3,0,1,flashing_distractor,0,0,0,0,0,-1,./stimuli/demo_stims/hippopotamus_03s.jpg,./stimuli/demo_stims/chainsaw_16s.jpg,./stimuli/demo_stims/coffee_pot_02s.jpg,./stimuli/demo_stims/chainsaw_16s.jpg,./stimuli/demo_stims/hippopotamus_03s.jpg,0.09625,0.06875,0.048125,-0.034375,right,0.33,./stimuli/demo_stims/hippopotamus_16s.jpg,im1_distractor,./stimuli/demo_stims/hippopotamus_11s.jpg,im1_distractor,./stimuli/demo_stims/chainsaw_08s.jpg,im2_distractor,./stimuli/demo_stims/chainsaw_06s.jpg,im2_distractor,-0.37,-0.25,0.37,-0.25,-0.37,0.25,0,0.35,0.37,0.25,0,-0.35,./stimuli/demo_stims/hippopotamus_03s.jpg,./stimuli/demo_stims/chainsaw_16s.jpg,right,./stimuli/cue_right.png,,,,,,,,,,,,,,,,,,,,,,,,,,,,,,,,,,,,,,,165.5899,167.5899,167.5899,167.8398,167.84,168.6566,168.6566,168.6567,168.6567,168.6567,171.6567,171.6569,,0,1,1,0,1,,,,,,,,,,,,,,,,,,,,,,,,,,,,,,,
,,165808,2024-10-21_13h24.30.168,WM_Deepgen,2023.2.1,Win32,59.88023952,,,,,,,,,,,,,,,,,,,,,,,,,,,,,,,,,,,,172.6571,174.6569,174.657,175.1568,178.2243,181.2237,[],[],[],[],[],[],[],0,demo,,,181.2239,182.2244,,,,,,img1,0.666666667,valid,img1,2,2,0.5,0.25,0,0,3,0,1,flashing_distractor,0,0,0,0,0,1,./stimuli/demo_stims/spatula_13s.jpg,./stimuli/demo_stims/baton1_04s.jpg,./stimuli/demo_stims/chime_06s.jpg,./stimuli/demo_stims/spatula_13s.jpg,./stimuli/demo_stims/baton1_04s.jpg,0.06875,0.09625,0.034375,-0.048125,left,0.33,./stimuli/demo_stims/spatula_03s.jpg,im1_distractor,./stimuli/demo_stims/spatula_02s.jpg,im1_distractor,./stimuli/demo_stims/baton1_13s.jpg,im2_distractor,./stimuli/demo_stims/baton1_15s.jpg,im2_distractor,0.37,0.25,0,0.35,-0.37,-0.25,-0.37,0.25,0.37,-0.25,0,-0.35,./stimuli/demo_stims/spatula_13s.jpg,./stimuli/demo_stims/baton1_04s.jpg,left,./stimuli/cue_left.png,,,,,,,,,,,,,,,,,,,,,,,,,,,,,,,,,,,,,,,175.1569,177.1567,177.1568,177.4069,177.4069,178.224,178.2241,178.2242,178.2242,178.2243,181.2238,181.2239,,0,2,2,2,1,,,,,,,,,,,,,,,,,,,,,,,,,,,,,,,
,,165808,2024-10-21_13h24.30.168,WM_Deepgen,2023.2.1,Win32,59.88023952,,,,,,,,,,,,,,,,,,,,,,,,,,,,,,,,,,,,182.2248,184.2238,184.2239,184.7238,187.791,190.824,[-0.02962960137261285],[0.338888892421016],[1],[0],[0],[2.813399999856756],"[""distractor_im_2""]",0,demo,,,190.8243,191.8242,,,,,,img2,0.666666667,valid,img2,2,2,0.5,0.25,0,0,3,0,1,flashing_distractor,0,0,0,0,0,1,./stimuli/demo_stims/earring_01b.jpg,./stimuli/demo_stims/shuffleboard_13s.jpg,./stimuli/demo_stims/spout_05s.jpg,./stimuli/demo_stims/earring_01b.jpg,./stimuli/demo_stims/shuffleboard_13s.jpg,0.09625,0.06875,0.048125,-0.034375,right,0.33,./stimuli/demo_stims/earring_02s.jpg,im1_distractor,./stimuli/demo_stims/earring_11n.jpg,im1_distractor,./stimuli/demo_stims/shuffleboard_01b.jpg,im2_distractor,./stimuli/demo_stims/shuffleboard_07s.jpg,im2_distractor,0,-0.35,0.37,-0.25,-0.37,0.25,0.37,0.25,0,0.35,-0.37,-0.25,./stimuli/demo_stims/shuffleboard_13s.jpg,./stimuli/demo_stims/earring_01b.jpg,right,./stimuli/cue_right.png,,,,,,,,,,,,,,,,,,,,,,,,,,,,,,,,,,,,,,,184.7239,186.7242,186.7243,186.974,186.974,187.7908,187.7908,187.7909,187.791,187.791,190.8242,190.8243,,0,3,3,1,1,,,,,,,,,,,,,,,,,,,,,,,,,,,,,,,
,,165808,2024-10-21_13h24.30.168,WM_Deepgen,2023.2.1,Win32,59.88023952,,,,,,,,,,,,,,,,,,,,,,,,,,,,,,,,,,,,191.8248,193.8244,193.8244,194.3241,197.3915,200.3911,[-0.3212963033605505],[0.338888892421016],[1],[0],[0],[1.4631000001431858],"[""memoranda_stim""]",1,demo,,,200.3914,201.3912,,,,,,img2,0.833333333,invalid,img1,2,2,0.5,0.25,0,0,3,0,1,flashing_distractor,0,0,0,0,0,-1,./stimuli/demo_stims/lollipop_10s.jpg,./stimuli/demo_stims/man_05s.jpg,./stimuli/demo_stims/coil_02s.jpg,./stimuli/demo_stims/man_05s.jpg,./stimuli/demo_stims/lollipop_10s.jpg,0.01375,0.15125,0.006875,-0.075625,left,0.33,./stimuli/demo_stims/lollipop_06n.jpg,im1_distractor,./stimuli/demo_stims/lollipop_03s.jpg,im1_distractor,./stimuli/demo_stims/man_10s.jpg,im2_distractor,./stimuli/demo_stims/man_02s.jpg,im2_distractor,-0.37,0.25,0,0.35,0,-0.35,-0.37,-0.25,0.37,0.25,0.37,-0.25,./stimuli/demo_stims/lollipop_10s.jpg,./stimuli/demo_stims/man_05s.jpg,right,./stimuli/cue_right.png,,,,,,,,,,,,,,,,,,,,,,,,,,,,,,,,,,,,,,,194.3243,196.3244,196.3244,196.5743,196.5745,197.3912,197.3913,197.3914,197.3915,197.3915,200.3912,200.3914,,0,4,4,3,1,,,,,,,,,,,,,,,,,,,,,,,,,,,,,,,
,,165808,2024-10-21_13h24.30.168,WM_Deepgen,2023.2.1,Win32,59.88023952,,,,,,,,,,,,,,,,,,,,,,,,,,,,,,,,,,,,,,,,,,,,,,,,,,,,,,,,,,,,,,,,,,,,,,,,,,,,,,,,,,,,,,,,,,,,,,,,,,,,,,,,,,,,,,,,,,,,,,,,,,,,,,,,,,,,,,,,,,,,,,,,,,,,,,,,,,,,,,,,,,,,,,,,,,,201.3917,201.3941,,0,0,0,0,1,,,,,,,,,,,,,,,,,,,,,,,
,,165808,2024-10-21_13h24.30.168,WM_Deepgen,2023.2.1,Win32,59.88023952,,,,,,,,,,,,,,,,,,,,,,,,,,,,,,,,,,,,,,,,,,,,,,,,,,demo,,,,,,,,,,,,,,,,,,,,,,,,,,,,,,,,,,,,,,,,,,,,,,,,,,,,,,,,,,,,,,,,,,,,,,,,,,,,,,,,,,,,,,,,,,,,,,,,,,,,,,,,,,,,,,,,,,,,,,,,,,,,,,,,,0,0,0,0,1,./demo.csv,"Now you will do a few demo trials to get accustomed to the cues.

Press 'y' to continue.",,,,,,,,,,,,,,,,
,,165808,2024-10-21_13h24.30.168,WM_Deepgen,2023.2.1,Win32,59.88023952,,,,,,,,,,,,,,,,,,,,,,,,,,,,,,,,,,,,209.3639,210.3584,210.3585,210.8581,213.8583,216.8583,[-0.2787036895751953],[0.2805555484913014],[1],[0],[0],[2.6965000000000146],"[""memoranda_stim""]",1,practice,,,216.8584,217.8584,,,,,,img1,0.666666667,valid,img1,1,1,0.5,0.25,1,0.75,3,0,1,flashing_distractor,0.2,0.2,0.2,0.2,0.2,1,./stimuli/demo_stims/diamond_11s.jpg,./stimuli/demo_stims/granola_12s.jpg,./stimuli/demo_stims/tree_10s.jpg,./stimuli/demo_stims/diamond_11s.jpg,./stimuli/demo_stims/granola_12s.jpg,0.06875,0.09625,0.034375,-0.048125,left,0.33,./stimuli/demo_stims/diamond_09s.jpg,im1_distractor,./stimuli/demo_stims/diamond_10s.jpg,im1_distractor,./stimuli/demo_stims/granola_11s.jpg,im2_distractor,./stimuli/demo_stims/granola_13s.jpg,im2_distractor,-0.37,0.25,0.37,0.25,-0.37,-0.25,0.37,-0.25,0,-0.35,0,0.35,./stimuli/demo_stims/diamond_11s.jpg,./stimuli/demo_stims/granola_12s.jpg,left,./stimuli/cue_left.png,,,,,,,,,,,,,,,,,,,,,,,,,,,,,,,,201.3951,207.358,y,5.9402,,207.358,209.3579,210.8582,211.8582,211.8582,212.1078,212.1079,213.1084,213.1085,213.1085,213.1086,213.8582,216.8584,216.8584,,0,0,0,1,1,,,,,,,,,,,,,,,,,,,,,,,,,,,,,,,
,,165808,2024-10-21_13h24.30.168,WM_Deepgen,2023.2.1,Win32,59.88023952,,,,,,,,,,,,,,,,,,,,,,,,,,,,,,,,,,,,217.8588,218.8585,218.8585,219.3584,222.3585,225.3587,[-0.05833329094780816],[0.2787037072358308],[1],[0],[0],[2.5470000000000255],"[""memoranda_stim""]",1,practice,,,225.3589,226.3588,,,,,,img2,0.666666667,valid,img2,1,1,0.5,0.25,1,0.75,3,0,1,flashing_distractor,0.2,0.2,0.2,0.2,0.2,1,./stimuli/demo_stims/bra_07s.jpg,./stimuli/demo_stims/flask_06s.jpg,./stimuli/demo_stims/plaster_cast_02s.jpg,./stimuli/demo_stims/bra_07s.jpg,./stimuli/demo_stims/flask_06s.jpg,0.09625,0.06875,0.048125,-0.034375,right,0.33,./stimuli/demo_stims/bra_13s.jpg,im1_distractor,./stimuli/demo_stims/bra_02s.jpg,im1_distractor,./stimuli/demo_stims/flask_05s.jpg,im2_distractor,./stimuli/demo_stims/flask_03s.jpg,im2_distractor,0,0.35,0.37,0.25,0,-0.35,0.37,-0.25,-0.37,0.25,-0.37,-0.25,./stimuli/demo_stims/flask_06s.jpg,./stimuli/demo_stims/bra_07s.jpg,right,./stimuli/cue_right.png,,,,,,,,,,,,,,,,,,,,,,,,,,,,,,,,,,,,,,,219.3585,220.3584,220.3585,220.6084,220.6086,221.6085,221.6086,221.6087,221.6087,222.3585,225.3587,225.3588,,0,1,1,4,1,,,,,,,,,,,,,,,,,,,,,,,,,,,,,,,
,,165808,2024-10-21_13h24.30.168,WM_Deepgen,2023.2.1,Win32,59.88023952,,,,,,,,,,,,,,,,,,,,,,,,,,,,,,,,,,,,226.3592,227.3588,227.3588,227.8587,230.8588,233.859,[-0.015740712483723957],[0.3907407389746772],[1],[0],[0],[1.2130000000001928],"[""memoranda_stim""]",1,practice,,,233.8593,234.859,,,,,,img2,0.666666667,valid,img2,1,1,0.5,0.25,1,0.75,3,0,1,flashing_distractor,0.2,0.2,0.2,0.2,0.2,-1,./stimuli/demo_stims/tee_07s.jpg,./stimuli/demo_stims/fire_hydrant_08s.jpg,./stimuli/demo_stims/missile_11s.jpg,./stimuli/demo_stims/fire_hydrant_08s.jpg,./stimuli/demo_stims/tee_07s.jpg,0.06875,0.09625,0.034375,-0.048125,left,0.33,./stimuli/demo_stims/tee_02s.jpg,im1_distractor,./stimuli/demo_stims/tee_04s.jpg,im1_distractor,./stimuli/demo_stims/fire_hydrant_12s.jpg,im2_distractor,./stimuli/demo_stims/fire_hydrant_02s.jpg,im2_distractor,0,0.35,0.37,-0.25,0,-0.35,-0.37,-0.25,-0.37,0.25,0.37,0.25,./stimuli/demo_stims/fire_hydrant_08s.jpg,./stimuli/demo_stims/tee_07s.jpg,left,./stimuli/cue_left.png,,,,,,,,,,,,,,,,,,,,,,,,,,,,,,,,,,,,,,,227.8587,228.8587,228.8587,229.1089,229.1089,230.1088,230.1088,230.1089,230.109,230.8588,233.8591,233.8593,,0,2,2,6,1,,,,,,,,,,,,,,,,,,,,,,,,,,,,,,,
,,165808,2024-10-21_13h24.30.168,WM_Deepgen,2023.2.1,Win32,59.88023952,,,,,,,,,,,,,,,,,,,,,,,,,,,,,,,,,,,,234.8596,235.8593,235.8594,236.3591,239.3591,242.3591,[0.03333331920482494],[0.42685185096882006],[1],[0],[0],[1.3972999999523381],"[""memoranda_stim""]",1,practice,,,242.3592,243.3588,,,,,,img1,0.833333333,valid,img1,1,1,0.5,0.25,1,0.75,3,0,1,flashing_distractor,0.2,0.2,0.2,0.2,0.2,-1,./stimuli/demo_stims/buoy_06s.jpg,./stimuli/demo_stims/toy_06s.jpg,./stimuli/demo_stims/bedpost_08s.jpg,./stimuli/demo_stims/toy_06s.jpg,./stimuli/demo_stims/buoy_06s.jpg,0.15125,0.01375,0.075625,-0.006875,right,0.33,./stimuli/demo_stims/buoy_12s.jpg,im1_distractor,./stimuli/demo_stims/buoy_05s.jpg,im1_distractor,./stimuli/demo_stims/toy_11s.jpg,im2_distractor,./stimuli/demo_stims/toy_09s.jpg,im2_distractor,0,0.35,0,-0.35,0.37,-0.25,-0.37,-0.25,-0.37,0.25,0.37,0.25,./stimuli/demo_stims/buoy_06s.jpg,./stimuli/demo_stims/toy_06s.jpg,right,./stimuli/cue_right.png,,,,,,,,,,,,,,,,,,,,,,,,,,,,,,,,,,,,,,,236.3591,237.3591,237.3592,237.6091,237.6091,238.6092,238.6093,238.6093,238.6094,239.359,242.3592,242.3592,,0,3,3,11,1,,,,,,,,,,,,,,,,,,,,,,,,,,,,,,,
,,165808,2024-10-21_13h24.30.168,WM_Deepgen,2023.2.1,Win32,59.88023952,,,,,,,,,,,,,,,,,,,,,,,,,,,,,,,,,,,,243.3592,244.3594,244.3594,244.8592,247.8594,250.8597,[0.3611111111111111],[0.24537037037037038],[1],[0],[0],[1.4133000001911569],"[""memoranda_stim""]",1,practice,,,250.8599,251.8595,,,,,,img2,0.666666667,valid,img2,1,1,0.5,0.25,1,0.75,3,0,1,flashing_distractor,0.2,0.2,0.2,0.2,0.2,1,./stimuli/demo_stims/helmet_11s.jpg,./stimuli/demo_stims/pancake_11s.jpg,./stimuli/demo_stims/paintbrush_11s.jpg,./stimuli/demo_stims/helmet_11s.jpg,./stimuli/demo_stims/pancake_11s.jpg,0.09625,0.06875,0.048125,-0.034375,right,0.33,./stimuli/demo_stims/helmet_12s.jpg,im1_distractor,./stimuli/demo_stims/helmet_07s.jpg,im1_distractor,./stimuli/demo_stims/pancake_12s.jpg,im2_distractor,./stimuli/demo_stims/pancake_02n.jpg,im2_distractor,0.37,0.25,0,0.35,-0.37,0.25,-0.37,-0.25,0.37,-0.25,0,-0.35,./stimuli/demo_stims/pancake_11s.jpg,./stimuli/demo_stims/helmet_11s.jpg,right,./stimuli/cue_right.png,,,,,,,,,,,,,,,,,,,,,,,,,,,,,,,,,,,,,,,244.8593,245.8594,245.8595,246.1094,246.1095,247.1097,247.1098,247.1098,247.1099,247.8594,250.8598,250.8599,,0,4,4,2,1,,,,,,,,,,,,,,,,,,,,,,,,,,,,,,,
,,165808,2024-10-21_13h24.30.168,WM_Deepgen,2023.2.1,Win32,59.88023952,,,,,,,,,,,,,,,,,,,,,,,,,,,,,,,,,,,,251.8602,252.8596,252.8596,253.3596,256.3599,259.36,[0.08240742153591579],[0.3287037037037037],[1],[0],[0],[1.5471999998089814],"[""memoranda_stim""]",1,practice,,,259.3602,260.3599,,,,,,img1,0.833333333,valid,img1,1,1,0.5,0.25,1,0.75,3,0,1,flashing_distractor,0.2,0.2,0.2,0.2,0.2,-1,./stimuli/demo_stims/sponge_03s.jpg,./stimuli/demo_stims/wood_03s.jpg,./stimuli/demo_stims/penholder_11s.jpg,./stimuli/demo_stims/wood_03s.jpg,./stimuli/demo_stims/sponge_03s.jpg,0.15125,0.01375,0.075625,-0.006875,right,0.33,./stimuli/demo_stims/sponge_10s.jpg,im1_distractor,./stimuli/demo_stims/sponge_11s.jpg,im1_distractor,./stimuli/demo_stims/wood_14s.jpg,im2_distractor,./stimuli/demo_stims/wood_11s.jpg,im2_distractor,0,0.35,0.37,-0.25,-0.37,-0.25,0,-0.35,0.37,0.25,-0.37,0.25,./stimuli/demo_stims/sponge_03s.jpg,./stimuli/demo_stims/wood_03s.jpg,right,./stimuli/cue_right.png,,,,,,,,,,,,,,,,,,,,,,,,,,,,,,,,,,,,,,,253.3596,254.3597,254.3598,254.6096,254.6097,255.6098,255.6099,255.61,255.61,256.3598,259.3601,259.3601,,0,5,5,10,1,,,,,,,,,,,,,,,,,,,,,,,,,,,,,,,
,,165808,2024-10-21_13h24.30.168,WM_Deepgen,2023.2.1,Win32,59.88023952,,,,,,,,,,,,,,,,,,,,,,,,,,,,,,,,,,,,260.3606,261.3599,261.3599,261.8599,264.8601,267.8603,[-0.028703689575195312],[0.2962962962962963],[1],[0],[0],[1.3625999999048872],"[""memoranda_stim""]",1,practice,,,267.8606,268.8602,,,,,,img2,0.833333333,invalid,img1,1,1,0.5,0.25,1,0.75,3,0,1,flashing_distractor,0.2,0.2,0.2,0.2,0.2,1,./stimuli/demo_stims/lipstick_09s.jpg,./stimuli/demo_stims/paint_04s.jpg,./stimuli/demo_stims/squeegee_09s.jpg,./stimuli/demo_stims/lipstick_09s.jpg,./stimuli/demo_stims/paint_04s.jpg,0.15125,0.01375,0.075625,-0.006875,right,0.33,./stimuli/demo_stims/lipstick_11s.jpg,im1_distractor,./stimuli/demo_stims/lipstick_01b.jpg,im1_distractor,./stimuli/demo_stims/paint_12s.jpg,im2_distractor,./stimuli/demo_stims/paint_05s.jpg,im2_distractor,0,0.35,0.37,0.25,-0.37,0.25,0,-0.35,0.37,-0.25,-0.37,-0.25,./stimuli/demo_stims/lipstick_09s.jpg,./stimuli/demo_stims/paint_04s.jpg,left,./stimuli/cue_left.png,,,,,,,,,,,,,,,,,,,,,,,,,,,,,,,,,,,,,,,261.86,262.8602,262.8602,263.1102,263.1102,264.11,264.1101,264.1101,264.1101,264.8601,267.8603,267.8606,,0,6,6,3,1,,,,,,,,,,,,,,,,,,,,,,,,,,,,,,,
,,165808,2024-10-21_13h24.30.168,WM_Deepgen,2023.2.1,Win32,59.88023952,,,,,,,,,,,,,,,,,,,,,,,,,,,,,,,,,,,,268.8609,269.8604,269.8605,270.3604,273.3605,276.3606,[-0.31296295589870876],[0.18796295589870876],[1],[0],[0],[1.5132999999523236],"[""distractor_im_0""]",0,practice,,,276.3609,277.3604,,,,,,img2,0.666666667,invalid,img1,1,1,0.5,0.25,1,0.75,3,0,1,flashing_distractor,0.2,0.2,0.2,0.2,0.2,1,./stimuli/demo_stims/aloe_08n.jpg,./stimuli/demo_stims/polar_bear_01b.jpg,./stimuli/demo_stims/kaleidoscope_05s.jpg,./stimuli/demo_stims/aloe_08n.jpg,./stimuli/demo_stims/polar_bear_01b.jpg,0.09625,0.06875,0.048125,-0.034375,right,0.33,./stimuli/demo_stims/aloe_07s.jpg,im1_distractor,./stimuli/demo_stims/aloe_04s.jpg,im1_distractor,./stimuli/demo_stims/polar_bear_21s.jpg,im2_distractor,./stimuli/demo_stims/polar_bear_18s.jpg,im2_distractor,0.37,0.25,0,-0.35,-0.37,0.25,0,0.35,-0.37,-0.25,0.37,-0.25,./stimuli/demo_stims/aloe_08n.jpg,./stimuli/demo_stims/polar_bear_01b.jpg,left,./stimuli/cue_left.png,,,,,,,,,,,,,,,,,,,,,,,,,,,,,,,,,,,,,,,270.3604,271.3602,271.3604,271.6103,271.6103,272.6103,272.6106,272.6106,272.6106,273.3604,276.3608,276.3609,,0,7,7,7,1,,,,,,,,,,,,,,,,,,,,,,,,,,,,,,,
,,165808,2024-10-21_13h24.30.168,WM_Deepgen,2023.2.1,Win32,59.88023952,,,,,,,,,,,,,,,,,,,,,,,,,,,,,,,,,,,,277.3611,278.3605,278.3607,278.8605,281.8607,284.8611,[-0.017592606721100985],[-0.3185185326470269],[1],[0],[0],[1.5960000000000036],"[""memoranda_stim""]",1,practice,,,284.8613,285.8608,,,,,,img1,0.833333333,valid,img1,1,1,0.5,0.25,1,0.75,3,0,1,flashing_distractor,0.2,0.2,0.2,0.2,0.2,1,./stimuli/demo_stims/football_helmet_04s.jpg,./stimuli/demo_stims/apron_07s.jpg,./stimuli/demo_stims/tweezers_01b.jpg,./stimuli/demo_stims/football_helmet_04s.jpg,./stimuli/demo_stims/apron_07s.jpg,0.01375,0.15125,0.006875,-0.075625,left,0.33,./stimuli/demo_stims/football_helmet_01b.jpg,im1_distractor,./stimuli/demo_stims/football_helmet_03s.jpg,im1_distractor,./stimuli/demo_stims/apron_05s.jpg,im2_distractor,./stimuli/demo_stims/apron_10s.jpg,im2_distractor,0,-0.35,-0.37,-0.25,0.37,0.25,0.37,-0.25,0,0.35,-0.37,0.25,./stimuli/demo_stims/football_helmet_04s.jpg,./stimuli/demo_stims/apron_07s.jpg,left,./stimuli/cue_left.png,,,,,,,,,,,,,,,,,,,,,,,,,,,,,,,,,,,,,,,278.8606,279.8607,279.8608,280.1106,280.1106,281.1106,281.1107,281.1108,281.1108,281.8607,284.8612,284.8613,,0,8,8,9,1,,,,,,,,,,,,,,,,,,,,,,,,,,,,,,,
,,165808,2024-10-21_13h24.30.168,WM_Deepgen,2023.2.1,Win32,59.88023952,,,,,,,,,,,,,,,,,,,,,,,,,,,,,,,,,,,,285.8615,286.8609,286.8611,287.361,290.3609,293.3611,[-0.3740740528813115],[-0.24444445857295283],[1],[0],[0],[2.1134000000952256],"[""memoranda_stim""]",1,practice,,,293.3613,294.3612,,,,,,img1,0.666666667,invalid,img2,1,1,0.5,0.25,1,0.75,3,0,1,flashing_distractor,0.2,0.2,0.2,0.2,0.2,-1,./stimuli/demo_stims/buckle_04s.jpg,./stimuli/demo_stims/meat_grinder_01b.jpg,./stimuli/demo_stims/nail_clippers_07s.jpg,./stimuli/demo_stims/meat_grinder_01b.jpg,./stimuli/demo_stims/buckle_04s.jpg,0.09625,0.06875,0.048125,-0.034375,right,0.33,./stimuli/demo_stims/buckle_07s.jpg,im1_distractor,./stimuli/demo_stims/buckle_10s.jpg,im1_distractor,./stimuli/demo_stims/meat_grinder_03s.jpg,im2_distractor,./stimuli/demo_stims/meat_grinder_11s.jpg,im2_distractor,-0.37,-0.25,0.37,-0.25,0,0.35,0,-0.35,0.37,0.25,-0.37,0.25,./stimuli/demo_stims/meat_grinder_01b.jpg,./stimuli/demo_stims/buckle_04s.jpg,left,./stimuli/cue_left.png,,,,,,,,,,,,,,,,,,,,,,,,,,,,,,,,,,,,,,,287.3611,288.3609,288.361,288.6111,288.6112,289.6112,289.6112,289.6113,289.6113,290.3609,293.3612,293.3613,,0,9,9,5,1,,,,,,,,,,,,,,,,,,,,,,,,,,,,,,,
,,165808,2024-10-21_13h24.30.168,WM_Deepgen,2023.2.1,Win32,59.88023952,,,,,,,,,,,,,,,,,,,,,,,,,,,,,,,,,,,,294.3622,295.3612,295.3613,295.8615,298.8613,301.8614,[-0.3333333333333333],[0.18981481481481483],[1],[0],[0],[2.0134000000953165],"[""distractor_im_3""]",0,practice,,,301.8616,302.8615,,,,,,img2,0.833333333,valid,img2,1,1,0.5,0.25,1,0.75,3,0,1,flashing_distractor,0.2,0.2,0.2,0.2,0.2,-1,./stimuli/demo_stims/home_plate_10s.jpg,./stimuli/demo_stims/blueberry_03s.jpg,./stimuli/demo_stims/laser_pointer_03s.jpg,./stimuli/demo_stims/blueberry_03s.jpg,./stimuli/demo_stims/home_plate_10s.jpg,0.01375,0.15125,0.006875,-0.075625,left,0.33,./stimuli/demo_stims/home_plate_04s.jpg,im1_distractor,./stimuli/demo_stims/home_plate_06s.jpg,im1_distractor,./stimuli/demo_stims/blueberry_12n.jpg,im2_distractor,./stimuli/demo_stims/blueberry_07s.jpg,im2_distractor,0,-0.35,0.37,0.25,-0.37,-0.25,0,0.35,0.37,-0.25,-0.37,0.25,./stimuli/demo_stims/blueberry_03s.jpg,./stimuli/demo_stims/home_plate_10s.jpg,left,./stimuli/cue_left.png,,,,,,,,,,,,,,,,,,,,,,,,,,,,,,,,,,,,,,,295.8616,296.8612,296.8613,297.1113,297.1114,298.1114,298.1115,298.1116,298.1116,298.8612,301.8615,301.8616,,0,10,10,8,1,,,,,,,,,,,,,,,,,,,,,,,,,,,,,,,
,,165808,2024-10-21_13h24.30.168,WM_Deepgen,2023.2.1,Win32,59.88023952,,,,,,,,,,,,,,,,,,,,,,,,,,,,,,,,,,,,302.862,303.8614,303.8614,304.3616,307.3614,310.3618,[-0.38148148854573566],[0.3101851851851852],[1],[0],[0],[1.0138999998571308],"[""memoranda_stim""]",1,practice,,,310.3619,311.3617,,,,,,img2,0.666666667,invalid,img1,1,1,0.5,0.25,1,0.75,3,0,1,flashing_distractor,0.2,0.2,0.2,0.2,0.2,1,./stimuli/demo_stims/potholder_10s.jpg,./stimuli/demo_stims/lamb_03s.jpg,./stimuli/demo_stims/remote_control_12s.jpg,./stimuli/demo_stims/potholder_10s.jpg,./stimuli/demo_stims/lamb_03s.jpg,0.09625,0.06875,0.048125,-0.034375,right,0.33,./stimuli/demo_stims/potholder_08s.jpg,im1_distractor,./stimuli/demo_stims/potholder_07s.jpg,im1_distractor,./stimuli/demo_stims/lamb_11s.jpg,im2_distractor,./stimuli/demo_stims/lamb_12s.jpg,im2_distractor,-0.37,0.25,0,0.35,0,-0.35,-0.37,-0.25,0.37,0.25,0.37,-0.25,./stimuli/demo_stims/potholder_10s.jpg,./stimuli/demo_stims/lamb_03s.jpg,left,./stimuli/cue_left.png,,,,,,,,,,,,,,,,,,,,,,,,,,,,,,,,,,,,,,,304.3616,305.3615,305.3615,305.6116,305.6117,306.6118,306.6118,306.6118,306.6118,307.3614,310.3619,310.3619,,0,11,11,0,1,,,,,,,,,,,,,,,,,,,,,,,,,,,,,,,
,,165808,2024-10-21_13h24.30.168,WM_Deepgen,2023.2.1,Win32,59.88023952,,,,,,,,,,,,,,,,,,,,,,,,,,,,,,,,,,,,,,,,,,,,,,,,,,,,,,,,,,,,,,,,,,,,,,,,,,,,,,,,,,,,,,,,,,,,,,,,,,,,,,,,,,,,,,,,,,,,,,,,,,,,,,,,,,,,,,,,,,,,,,,,,,,,,,,,,,,,,,,,,,,,,,,,,,,311.3618,311.3622,,0,0,0,0,1,,,,,,,,,,,,,,,,,,,,,,,
,,165808,2024-10-21_13h24.30.168,WM_Deepgen,2023.2.1,Win32,59.88023952,,,,,,,,,,,,,,,,,,,,,,,,,,,,,,,,,,,,,,,,,,,,,,,,,,practice,,,,,,,,,,,,,,,,,,,,,,,,,,,,,,,,,,,,,,,,,,,,,,,,,,,,,,,,,,,,,,,,,,,,,,,,,,,,,,,,,,,,,,,,,,,,,,,,,,,,,,,,,,,,,,,,,,,,,,,,,,,,,,,,,0,1,1,1,1,./prac.csv,"Now you will do a few practice trials to get accustomed to the task.

The practice trials are identical to what you just did except for two changes.

First, the task is a bit faster paced.

Second, after you see the rectangle image telling you which item is more likely to be tested, a new image will briefly flash at the center of the screen. This item is irrelevant to your memory task and can be ignored.

Press 'y' to continue.",,,,,,,,,,,,,,,,
,,165808,2024-10-21_13h24.30.168,WM_Deepgen,2023.2.1,Win32,59.88023952,,,,,,,,,,,,,,,,,,,,,,,,,,,,,,,,,,,,,,,,,,,,,,,,,,mainTask,,,,,,,,,,,,,,,,,,,,,,,,,,,,,,,,,,,,,,,,,,,,,,,,,,,,,,,,,,,,,,,,,,,,,,,,,,,,,,,,,,,,,,,,,,,,,,,,311.3641,,,,,,,,,,,,,,,,,,,,,,,,,,,,0,0,0,0,1,0,2,2,2,1,./resources/conditions_file_8.csv,"Now you are ready to start the experiment! Try your hardest and remember to focus on the center of the screen. 

There will be ten 5-minute blocks, with a short break between each.

Press 'y' to begin.",0,0,0,0,1,0,0,0,0,8,1,10,./resources/taskPhases_8.csv,taskPhases_8,2,4